DeviceTag:;A4;;;;;;;;;
FirmwareVersion:;3.0.0;;;;;;;;;
AppVersion:;2023.6.0;;;;;;;;;
StartTime: ;2026-05-28_17:21:03_000 CEST;;;;;;;;;
© Movella Technologies B. V. 2005-2026;;;;;;;;;;
;;;;;;;;;;
PacketCounter;SampleTimeFine;Euler_X;Euler_Y;Euler_Z;ax;ay;az;Gyr_X;Gyr_Y;Gyr_Z
0;1610171478;-7.391.897.583.007.810;-6.186.072.540.283.200;6.388.637.161.254.880;0.00000000000000;0.00000000000000;0.00000000000000;0.00000000000000;0.00000000000000;0.00000000000000
1;1610179811;-7.437.364.959.716.790;-6.180.409.622.192.380;6.386.558.914.184.570;976.705.741.882.324;-504.629.850.387.573;403.210.401.535.034;-5.754.205.703.735.350;294.641.447.067.261;641.459.274.291.992
2;1610188144;-7.473.947.143.554.680;-6.176.455.307.006.830;6.384.930.038.452.140;850.656.890.869.141;-423.505.353.927.612;203.384.971.618.652;-4.656.713.485.717.770;185.626.697.540.283;474.084.520.339.966
3;1610196477;-7.496.415.710.449.210;-6.173.452.377.319.330;6.383.060.455.322.260;772.169.113.159.180;-428.364.706.039.429;249.625.754.356.384;-2.971.925.735.473.630;192.147.886.753.082;340.408.277.511.597
4;1610204810;-7.500.807.952.880.850;-6.171.819.686.889.640;6.379.352.951.049.800;828.532.600.402.832;-612.774.229.049.683;223.429.250.717.163;-1.009.409.809.112.540;230.617.809.295.654;169.538.116.455.078
5;1610213143;-7.485.539.245.605.460;-6.171.131.896.972.650;6.372.558.212.280.270;905.402.660.369.873;-788.968.420.028.687;205.639.076.232.910;1.036.254.692.077.630;389.956.283.569.336;-0.00631391024217
6;1610221476;-7.448.617.553.710.930;-6.173.328.018.188.470;6.358.692.932.128.900;896.265.506.744.385;-678.054.189.682.007;152.079.534.530.640;2.775.083.541.870.110;512.156.915.664.673;-300.761.246.681.213
7;1610229809;-7.403.118.896.484.370;-6.176.176.071.166.990;6.344.816.970.825.190;874.039.936.065.674;-369.560.050.964.355;0.41582822799683;3.915.164.566.040.030;661.363.077.163.696;-523.088.312.149.048
8;1610238142;-7.353.034.973.144.530;-6.179.392.242.431.640;6.328.166.198.730.460;880.144.309.997.559;-455.492.925.643.921;0.55419969558716;4.169.117.736.816.400;790.909.862.518.311;-611.303.949.356.079
9;1610246475;-7.309.030.914.306.640;-6.183.877.944.946.280;6.310.899.353.027.340;893.703.269.958.496;-584.509.801.864.624;120.033.037.662.506;3.376.131.439.208.980;778.330.373.764.038;-776.807.594.299.316
10;1610254808;-7.274.803.161.621.090;-6.189.874.649.047.850;6.291.089.248.657.220;872.831.249.237.061;-509.490.442.276.001;122.354.674.339.294;1.834.868.812.561.030;705.554.723.739.624;-873.052.692.413.330
11;1610263141;-7.256.530.761.718.750;-6.196.048.355.102.530;6.274.928.283.691.400;861.971.950.531.006;-414.363.765.716.553;146.786.725.521.088;403.452.396.392.822;645.642.662.048.340;-959.310.722.351.074
12;1610271474;-7.248.635.101.318.350;-6.203.298.187.255.850;6.259.313.964.843.750;887.469.673.156.738;-474.069.499.969.482;166.957.020.759.583;-804.936.313.629.150;542.491.579.055.786;-1.048.696.804.046.630
13;1610279807;-7.244.721.984.863.280;-6.211.612.319.946.280;6.244.454.193.115.230;862.542.247.772.217;-524.679.946.899.414;156.923.758.983.612;-1.183.771.228.790.280;491.112.136.840.820;-1.183.358.764.648.430
14;1610288140;-7.233.547.973.632.810;-6.221.520.233.154.290;6.225.343.322.753.900;865.570.259.094.238;-525.319.242.477.417;183.130.550.384.521;-857.732.582.092.285;513.119.792.938.232;-1.320.225.811.004.630
15;1610296473;-7.219.498.443.603.510;-6.232.271.575.927.730;6.208.744.430.541.990;919.114.303.588.867;-531.463.050.842.285;247.534.012.794.495;-155.208.194.255.829;485.443.639.755.249;-1.491.495.418.548.580
16;1610304806;-7.195.789.337.158.200;-6.244.435.119.628.900;6.190.136.337.280.270;894.780.731.201.172;-497.871.780.395.508;249.122.381.210.327;753.717.041.015.625;476.611.948.013.306;-1.644.233.322.143.550
17;1610313139;-7.168.016.815.185.540;-6.257.119.369.506.830;6.172.600.555.419.920;839.909.744.262.695;-346.910.214.424.133;261.433.386.802.673;1.388.145.065.307.610;443.563.222.885.132;-1.729.422.760.009.760
18;1610321472;-7.140.935.516.357.420;-6.271.080.017.089.840;6.156.251.907.348.630;798.940.896.987.915;-520.436.000.823.975;216.803.312.301.636;1.418.464.374.542.230;303.089.499.473.572;-1.841.049.575.805.660
19;1610329805;-7.123.934.936.523.430;-6.286.904.907.226.560;6.142.447.280.883.780;987.101.554.870.605;-643.905.067.443.848;285.391.426.086.426;488.877.296.447.754;105.086.278.915.405;-2.021.642.684.936.520
20;1610338138;-7.117.325.592.041.010;-6.303.141.021.728.510;6.128.234.863.281.250;965.125.751.495.361;-450.244.474.411.011;102.373.206.615.448;-868.612.289.428.711;-0.01787874288857;-1.993.566.894.531.250
21;1610346471;-7.117.077.636.718.750;-6.317.418.289.184.570;6.116.108.703.613.280;801.316.356.658.936;0.69880503416061;0.16904115676880;-1.345.848.083.496.090;0.65621131658554;-1.814.488.792.419.430
22;1610354804;-7.122.914.886.474.600;-6.328.281.021.118.160;6.105.721.282.958.980;777.953.863.143.921;-0.00598424673080;0.84118402004242;-1.895.475.959.777.830;100.612.759.590.149;-1.390.217.018.127.440
23;1610363137;-7.133.244.323.730.460;-6.336.666.488.647.460;6.096.133.041.381.830;928.507.041.931.152;-367.835.927.009.583;192.178.249.359.131;-2.345.605.850.219.720;161.756.551.265.717;-1.099.098.491.668.700
24;1610371470;-7.147.866.058.349.600;-6.343.620.300.292.960;6.088.141.250.610.350;899.440.860.748.291;-409.050.464.630.127;195.855.855.941.772;-2.692.888.450.622.550;132.355.272.769.928;-904.897.880.554.199
25;1610379803;-7.161.962.890.625.000;-6.349.766.540.527.340;6.081.321.334.838.860;838.766.193.389.893;-205.862.402.915.955;170.990.991.592.407;-2.501.783.752.441.400;108.858.013.153.076;-795.720.720.291.138
26;1610388136;-7.171.559.906.005.850;-6.355.683.898.925.780;6.073.925.399.780.270;908.424.949.645.996;-332.690.787.315.369;246.362.161.636.353;-2.075.700.378.417.960;0.63082760572433;-712.464.094.161.987
27;1610396469;-7.180.292.510.986.320;-6.361.495.590.209.960;6.068.831.634.521.480;928.123.760.223.389;-527.386.665.344.238;207.393.646.240.234;-1.673.489.761.352.530;0.35619163513184;-727.888.822.555.542
28;1610404802;-7.180.055.236.816.400;-6.367.768.478.393.550;6.061.762.237.548.820;873.144.721.984.863;-410.675.525.665.283;170.367.741.584.778;-843.480.682.373.047;0.61848127841949;-768.976.497.650.146
29;1610413135;-7.174.633.789.062.500;-6.373.566.436.767.570;6.055.307.769.775.390;850.704.669.952.393;-291.803.693.771.362;139.430.785.179.138;-121.827.721.595.764;103.806.829.452.515;-748.346.853.256.226
30;1610421468;-7.162.425.994.873.040;-6.378.844.833.374.020;6.047.021.484.375.000;903.268.718.719.482;-317.932.677.268.982;168.479.812.145.233;468.520.212.173.462;169.753.217.697.144;-685.891.580.581.665
31;1610429801;-7.151.267.242.431.640;-6.383.394.622.802.730;6.040.165.328.979.490;885.271.358.489.990;-378.037.166.595.459;174.789.321.422.577;522.853.136.062.622;167.248.141.765.594;-612.578.487.396.240
32;1610438134;-7.140.277.862.548.820;-6.387.787.628.173.820;6.033.101.272.583.000;874.467.754.364.014;-325.426.220.893.860;185.928.380.489.349;442.588.424.682.617;119.864.392.280.579;-550.064.420.700.073
33;1610446467;-7.134.125.518.798.820;-6.391.273.117.065.430;6.028.562.164.306.640;898.494.911.193.848;-301.931.381.225.586;163.458.549.976.349;171.144.068.241.119;0.89014583826065;-453.024.864.196.777
34;1610454800;-7.126.842.498.779.290;-6.394.962.692.260.740;6.022.438.049.316.400;883.212.184.906.006;-365.659.618.377.686;182.688.498.497.009;0.59547972679138;0.31349262595177;-403.471.565.246.582
35;1610463133;-7.125.669.097.900.390;-6.397.765.350.341.790;6.020.237.350.463.860;871.034.526.824.951;-356.157.207.489.014;181.105.554.103.851;-174.626.314.640.045;-0.02508914284408;-335.809.016.227.722
36;1610471466;-7.121.611.022.949.210;-6.400.935.363.769.530;6.015.560.150.146.480;908.748.912.811.279;-368.163.585.662.842;177.596.008.777.618;-175.645.792.484.283;-0.28333190083504;-313.757.753.372.192
37;1610479799;-7.122.470.855.712.890;-6.403.533.172.607.420;6.014.911.270.141.600;869.726.657.867.432;-361.122.679.710.388;197.128.784.656.525;-251.130.914.688.110;-0.72525417804718;-286.137.866.973.877
38;1610488132;-7.118.608.856.201.170;-6.406.623.077.392.570;6.010.770.797.729.490;917.361.354.827.881;-389.132.547.378.540;146.702.146.530.151;-155.751.192.569.733;-0.76795315742493;-276.681.113.243.103
39;1610496465;-7.118.088.531.494.140;-6.409.304.809.570.310;6.010.654.067.993.160;870.740.032.196.045;-378.844.380.378.723;198.125.505.447.388;-0.28151327371597;-102.373.695.373.535;-286.468.338.966.370
40;1610504798;-7.113.880.157.470.700;-6.412.203.216.552.730;6.006.892.013.549.800;903.266.620.635.986;-360.816.955.566.406;151.781.094.074.249;-0.72412735223770;-0.87384241819382;-249.486.494.064.331
41;1610513131;-7.112.895.965.576.170;-6.414.710.235.595.700;6.006.717.681.884.760;884.793.949.127.197;-393.035.697.937.012;157.487.404.346.466;0.21259814500809;-0.93134635686874;-267.844.200.134.277
42;1610521464;-7.108.827.209.472.650;-6.417.751.312.255.850;6.003.239.059.448.240;901.421.642.303.467;-395.217.037.200.928;154.596.316.814.423;-0.56052911281586;-103.259.944.915.771;-263.523.101.806.641
43;1610529797;-7.109.029.388.427.730;-6.420.492.553.710.930;6.003.003.311.157.220;891.151.714.324.951;-393.314.361.572.266;170.889.139.175.415;-127.690.792.083.740;-0.99548441171646;-295.548.558.235.168
44;1610538130;-7.106.260.681.152.340;-6.423.763.275.146.480;5.999.137.496.948.240;904.635.524.749.756;-405.847.740.173.340;136.458.051.204.681;-249.468.564.987.183;-0.86293077468872;-302.236.461.639.404
45;1610546463;-7.107.301.330.566.400;-6.426.676.177.978.510;5.998.149.871.826.170;884.649.944.305.420;-384.377.861.022.949;158.907.246.589.661;-309.580.087.661.743;-0.68916380405426;-327.533.078.193.665
46;1610554796;-7.107.850.646.972.650;-6.429.975.128.173.820;5.995.077.896.118.160;894.994.258.880.615;-364.952.039.718.628;161.051.547.527.313;-551.144.027.709.961;-109.009.051.322.937;-306.264.305.114.746
47;1610563129;-7.113.214.111.328.120;-6.432.686.614.990.230;5.995.350.265.502.930;878.392.124.176.025;-316.495.180.130.005;167.493.426.799.774;-692.059.516.906.738;-123.267.245.292.664;-283.228.158.950.806
48;1610571462;-7.114.817.810.058.590;-6.435.662.841.796.870;5.992.182.922.363.280;898.157.215.118.408;-388.567.304.611.206;137.582.814.693.451;-700.202.322.006.226;-112.158.346.176.147;-255.674.910.545.349
49;1610579795;-7.119.091.033.935.540;-6.437.815.093.994.140;5.992.182.922.363.280;873.747.825.622.559;-343.535.351.753.235;154.260.647.296.906;-591.049.766.540.527;-0.87878596782684;-224.148.893.356.323
50;1610588128;-7.120.738.983.154.290;-6.439.868.164.062.500;5.990.052.032.470.700;878.935.050.964.355;-308.456.802.368.164;171.137.678.623.199;-578.580.760.955.811;-102.857.792.377.472;-151.860.404.014.587
51;1610596461;-7.125.934.600.830.070;-6.441.146.850.585.930;5.991.411.209.106.440;892.214.012.145.996;-324.247.312.545.776;178.564.226.627.350;-554.441.833.496.094;-120.585.405.826.569;-102.847.552.299.500
52;1610604794;-7.128.746.032.714.840;-6.442.156.982.421.870;5.991.550.445.556.640;891.087.913.513.184;-370.708.012.580.872;162.443.494.796.753;-441.398.572.921.753;-120.372.819.900.513;-0.37518447637558
53;1610613127;-7.130.859.375.000.000;-6.442.661.285.400.390;5.993.078.613.281.250;895.211.029.052.734;-364.304.900.169.373;153.569.197.654.724;-166.365.718.841.553;-0.98938822746277;-0.11817126721144
54;1610621460;-7.126.856.994.628.900;-6.443.517.303.466.790;5.991.199.493.408.200;895.139.694.213.867;-356.318.163.871.765;171.975.803.375.244;121.393.549.442.291;-0.77645719051361;-0.04222506657243
55;1610629793;-7.127.330.017.089.840;-6.443.767.547.607.420;5.993.189.239.501.950;889.637.660.980.225;-357.393.908.500.671;189.184.117.317.200;0.80607998371124;-111.694.717.407.227;0.23913450539112
56;1610638126;-7.127.014.160.156.250;-6.444.956.970.214.840;5.992.758.941.650.390;906.041.145.324.707;-437.353.754.043.579;180.784.416.198.730;-169.644.379.615.784;-170.356.440.544.128;-0.09929358214140
57;1610646459;-7.132.892.608.642.570;-6.445.942.687.988.280;5.995.880.126.953.120;905.464.649.200.439;-433.407.640.457.153;138.468.265.533.447;-445.322.704.315.186;-195.378.994.941.711;-0.40008160471916
58;1610654792;-7.137.036.132.812.500;-6.447.349.548.339.840;5.996.517.562.866.210;888.467.788.696.289;-345.323.944.091.797;131.101.584.434.509;-568.094.253.540.039;-195.202.243.328.094;-0.46393781900406
59;1610663125;-7.145.412.445.068.350;-6.448.056.793.212.890;5.999.877.929.687.500;884.161.376.953.125;-307.813.978.195.190;163.689.386.844.635;-719.474.363.327.026;-196.137.166.023.254;-0.04978127032518
60;1610671458;-7.153.044.891.357.420;-6.449.130.249.023.430;6.001.837.539.672.850;895.767.688.751.221;-352.309.823.036.194;218.855.524.063.110;-859.778.976.440.430;-275.518.250.465.393;0.35360455513000
61;1610679791;-7.165.726.470.947.260;-6.450.218.200.683.590;6.007.771.682.739.250;898.250.961.303.711;-466.300.487.518.311;199.729.013.442.993;-957.237.243.652.344;-336.435.317.993.164;-0.07430689781904
62;1610688124;-7.175.936.126.708.980;-6.452.417.755.126.950;6.012.041.091.918.940;889.954.280.853.271;-413.003.301.620.483;204.294.133.186.340;-908.705.997.467.041;-413.897.848.129.272;-0.68792152404785
63;1610696457;-7.188.999.938.964.840;-6.454.336.547.851.560;6.019.859.695.434.570;889.263.343.811.035;-335.261.440.277.100;181.527.471.542.358;-798.751.878.738.403;-459.675.645.828.247;-0.73054367303848
64;1610704790;-7.198.087.310.791.010;-6.456.607.818.603.510;6.026.747.894.287.100;894.509.887.695.312;-388.521.504.402.161;179.579.651.355.743;-456.366.252.899.170;-485.981.464.385.986;-0.83218091726303
65;1610713123;-7.206.694.030.761.710;-6.459.169.769.287.100;6.035.453.796.386.710;900.887.870.788.574;-453.502.273.559.570;204.247.546.195.984;-167.326.271.533.966;-526.089.477.539.062;-134.045.684.337.616
66;1610721456;-7.210.963.439.941.400;-6.462.434.387.207.030;6.041.664.886.474.600;890.638.542.175.293;-366.576.218.605.042;179.249.286.651.611;0.04935862869024;-564.326.429.367.065;-148.950.624.465.942
67;1610729789;-7.217.668.914.794.920;-6.465.116.119.384.760;6.051.133.728.027.340;886.125.755.310.059;-319.915.413.856.506;166.634.988.784.790;144.100.570.678.711;-566.508.722.305.298;-136.965.715.885.162
68;1610738122;-7.222.807.312.011.710;-6.467.861.938.476.560;6.058.956.909.179.680;897.563.171.386.719;-382.475.399.971.008;136.914.730.072.021;103.169.023.990.631;-575.955.295.562.744;-103.206.181.526.184
69;1610746455;-7.229.428.100.585.930;-6.470.452.880.859.370;6.068.061.065.673.820;900.397.777.557.373;-417.141.294.479.370;0.96312254667282;115.187.215.805.054;-544.032.239.913.940;-134.081.542.491.913
70;1610754788;-7.232.524.871.826.170;-6.473.799.896.240.230;6.073.448.181.152.340;899.189.662.933.350;-418.109.178.543.091;122.683.370.113.373;0.66927433013916;-508.172.369.003.296;-186.501.073.837.280
71;1610763121;-7.238.880.920.410.150;-6.476.889.801.025.390;6.080.893.707.275.390;888.698.005.676.270;-391.198.658.943.176;135.083.615.779.877;-0.32682481408119;-480.060.720.443.726;-218.198.704.719.543
72;1610771454;-7.241.511.535.644.530;-6.480.470.275.878.900;6.084.908.294.677.730;902.103.328.704.834;-389.225.792.884.827;110.124.242.305.756;-0.15669509768486;-431.083.774.566.650;-248.392.772.674.561
73;1610779787;-7.245.215.606.689.450;-6.483.828.735.351.560;6.090.301.513.671.870;906.813.049.316.406;-394.644.570.350.647;131.654.381.752.014;0.63198006153107;-388.628.172.874.451;-281.663.107.872.009
74;1610788120;-7.247.261.047.363.280;-6.487.955.474.853.510;6.092.153.930.664.060;888.357.257.843.018;-422.107.076.644.897;117.592.394.351.959;-194.859.004.020.691;-371.540.856.361.389;-323.890.733.718.872
75;1610796453;-7.254.823.303.222.650;-6.491.395.568.847.650;6.097.202.682.495.110;900.216.388.702.393;-339.791.035.652.161;122.592.926.025.391;-436.898.136.138.916;-373.538.780.212.402;-296.867.704.391.479
76;1610804786;-7.262.304.687.500.000;-6.494.841.766.357.420;6.100.603.485.107.420;886.411.094.665.527;-295.275.974.273.682;161.085.426.807.404;-667.528.867.721.558;-401.642.799.377.441;-237.724.471.092.224
77;1610813119;-7.275.112.915.039.060;-6.497.403.717.041.010;6.107.678.222.656.250;891.331.100.463.867;-317.528.319.358.826;179.977.989.196.777;-845.976.734.161.377;-439.004.945.755.005;-166.661.584.377.289
78;1610821452;-7.284.948.730.468.750;-6.499.924.468.994.140;6.113.348.770.141.600;893.803.310.394.287;-373.762.440.681.458;146.667.098.999.023;-688.030.385.971.069;-450.760.602.951.050;-120.114.111.900.330
79;1610829785;-7.293.659.973.144.530;-6.502.234.649.658.200;6.120.841.217.041.010;900.454.044.342.041;-393.567.228.317.261;154.930.317.401.886;-308.529.877.662.659;-449.093.103.408.813;-133.551.347.255.707
80;1610838118;-7.296.280.670.166.010;-6.504.909.515.380.850;6.125.379.180.908.200;898.535.919.189.453;-376.298.594.474.792;155.719.935.894.012;0.38010245561600;-430.347.347.259.521;-131.477.880.477.905
81;1610846451;-7.299.061.584.472.650;-6.507.173.919.677.730;6.132.009.887.695.310;898.356.533.050.537;-363.431.596.755.981;141.837.334.632.874;309.804.201.126.099;-405.028.963.088.989;-141.663.372.516.632
82;1610854784;-7.297.678.375.244.140;-6.509.855.651.855.460;6.135.879.898.071.280;896.020.412.445.068;-375.619.316.101.074;131.136.453.151.703;445.751.762.390.137;-398.307.728.767.395;-141.724.848.747.253
83;1610863117;-7.299.419.403.076.170;-6.512.192.535.400.390;6.142.116.165.161.130;897.564.792.633.057;-378.561.377.525.330;127.065.277.099.609;391.882.443.428.040;-387.647.080.421.448;-156.050.896.644.592
84;1610871450;-7.300.142.669.677.730;-6.514.855.194.091.790;6.145.703.887.939.450;896.203.804.016.113;-352.846.574.783.325;139.215.791.225.433;158.087.229.728.699;-391.769.742.965.698;-137.315.356.731.415
85;1610879783;-7.307.303.619.384.760;-6.516.844.940.185.540;6.152.780.532.836.910;896.044.731.140.137;-360.944.199.562.073;125.240.516.662.598;-166.925.406.455.994;-415.414.190.292.358;-104.255.056.381.226
86;1610888116;-7.313.082.122.802.730;-6.519.279.479.980.460;6.156.753.921.508.780;905.062.007.904.053;-386.521.506.309.509;0.92050814628601;-404.656.219.482.422;-398.542.094.230.652;-108.279.049.396.515
87;1610896449;-7.322.910.308.837.890;-6.521.189.880.371.090;6.163.403.701.782.220;897.391.414.642.334;-372.487.640.380.859;126.358.127.593.994;-533.088.588.714.600;-391.111.445.426.941;-102.836.024.761.200
88;1610904782;-7.330.717.468.261.710;-6.523.483.276.367.180;6.166.949.844.360.350;898.261.356.353.760;-351.019.024.848.938;142.997.980.117.798;-693.770.647.048.950;-371.848.320.960.999;-0.98974704742432
89;1610913115;-7.341.082.000.732.420;-6.525.144.958.496.090;6.172.907.257.080.070;896.149.635.314.941;-366.949.391.365.051;107.643.115.520.477;-672.779.798.507.690;-348.403.596.878.052;-0.85639935731888
90;1610921448;-7.346.053.314.208.980;-6.527.178.192.138.670;6.175.318.908.691.400;898.527.717.590.332;-376.661.419.868.469;110.744.941.234.589;-475.360.488.891.602;-303.855.276.107.788;-0.88521510362625
91;1610929781;-7.352.172.088.623.040;-6.528.394.317.626.950;6.179.803.466.796.870;897.189.807.891.846;-349.852.275.848.389;125.069.391.727.448;-323.432.254.791.260;-261.906.862.258.911;-0.56145125627518
92;1610938114;-7.353.837.585.449.210;-6.529.989.624.023.430;6.180.800.247.192.380;895.193.290.710.449;-346.098.899.841.309;114.123.058.319.092;-231.664.085.388.184;-218.649.506.568.909;-0.60320240259171
93;1610946447;-7.357.430.267.333.980;-6.530.897.521.972.650;6.184.059.524.536.130;898.641.204.833.984;-371.045.994.758.606;114.121.425.151.825;-153.882.646.560.669;-192.140.078.544.617;-0.38521251082420
94;1610954780;-7.358.100.128.173.820;-6.532.086.181.640.620;6.184.748.840.332.030;899.090.671.539.307;-376.282.596.588.135;125.245.869.159.698;-136.885.035.037.994;-174.399.650.096.893;-0.29561388492584
95;1610963113;-7.361.026.000.976.560;-6.532.870.483.398.430;6.187.515.640.258.780;897.885.894.775.391;-367.050.218.582.153;134.077.894.687.653;-127.482.044.696.808;-163.992.571.830.750;-0.31131541728973
96;1610971446;-7.360.848.236.083.980;-6.534.088.897.705.070;6.187.525.177.001.950;901.093.578.338.623;-377.486.777.305.603;141.585.648.059.845;-116.739.428.043.365;-156.869.268.417.358;-0.31487578153610
97;1610979779;-7.362.928.771.972.650;-6.534.914.398.193.350;6.190.171.051.025.390;900.818.634.033.203;-383.839.964.866.638;136.561.071.872.711;-0.39211550354958;-159.291.064.739.227;-0.37964135408401
98;1610988112;-7.361.021.423.339.840;-6.536.283.111.572.260;6.190.053.558.349.600;899.757.099.151.611;-376.656.270.027.161;131.013.488.769.531;0.77629059553146;-153.860.867.023.468;-0.51742035150528
99;1610996445;-7.360.984.802.246.090;-6.537.156.677.246.090;6.192.165.374.755.850;900.606.727.600.098;-371.292.257.308.960;130.339.491.367.340;156.526.029.109.955;-135.346.901.416.779;-0.50807112455368
100;1611004778;-7.358.196.258.544.920;-6.538.454.437.255.850;6.191.548.919.677.730;895.937.442.779.541;-374.510.598.182.678;118.679.523.468.018;131.178.176.403.046;-123.300.516.605.377;-0.53460752964020
101;1611013111;-7.358.864.593.505.850;-6.539.391.326.904.290;6.193.427.276.611.320;901.284.599.304.199;-371.037.292.480.469;122.926.568.984.985;0.46696028113365;-126.175.713.539.124;-0.61415249109268
102;1611021444;-7.358.020.782.470.700;-6.540.806.579.589.840;6.193.074.035.644.530;897.680.854.797.363;-366.843.223.571.777;144.602.227.210.999;-0.74162179231644;-141.379.058.361.053;-0.63219779729843
103;1611029777;-7.361.115.264.892.570;-6.541.811.370.849.600;6.195.579.147.338.860;899.608.802.795.410;-373.038.911.819.458;133.890.676.498.413;-175.876.295.566.559;-158.489.358.425.140;-0.60525155067444
104;1611038110;-7.361.107.635.498.040;-6.543.184.661.865.230;6.195.355.987.548.820;897.158.145.904.541;-366.848.802.566.528;130.505.895.614.624;-159.306.442.737.579;-144.734.513.759.613;-0.56572884321213
105;1611046443;-7.363.587.188.720.700;-6.544.181.823.730.460;6.197.865.295.410.150;899.537.277.221.680;-361.309.218.406.677;143.399.882.316.589;-101.838.362.216.949;-158.281.874.656.677;-0.59526193141937
106;1611054776;-7.363.134.765.625.000;-6.545.527.648.925.780;6.197.823.715.209.960;899.098.396.301.270;-366.022.491.455.078;128.817.176.818.848;-0.85447800159454;-150.784.587.860.107;-0.52256882190704
107;1611063109;-7.364.850.616.455.070;-6.546.411.132.812.500;6.200.156.784.057.610;899.718.189.239.502;-371.584.463.119.507;118.428.909.778.595;-0.29011961817741;-145.876.908.302.307;-0.49011555314064
108;1611071442;-7.363.607.025.146.480;-6.547.693.634.033.200;6.199.618.148.803.710;898.432.159.423.828;-362.734.961.509.705;118.848.061.561.584;-0.44060322642326;-123.336.374.759.674;-0.52881866693497
109;1611079775;-7.365.485.382.080.070;-6.548.326.110.839.840;6.201.223.754.882.810;897.893.524.169.922;-354.465.579.986.572;110.039.341.449.738;-128.028.917.312.622;-102.558.124.065.399;-0.30669206380844
110;1611088108;-7.365.283.203.125.000;-6.549.258.422.851.560;6.200.307.083.129.880;895.963.764.190.674;-362.606.763.839.722;113.200.497.627.258;-208.777.761.459.351;-0.91249430179596;-0.19404062628746
111;1611096441;-7.369.359.588.623.040;-6.549.838.256.835.930;6.202.266.693.115.230;902.381.896.972.656;-382.945.919.036.865;142.257.785.797.119;-353.085.827.827.454;-117.660.260.200.500;-0.19626906514168
112;1611104774;-7.371.488.952.636.710;-6.550.865.173.339.840;6.201.842.498.779.290;899.500.274.658.203;-378.548.431.396.484;121.326.172.351.837;-430.602.216.720.581;-109.860.742.092.133;-0.29396179318428
113;1611113107;-7.374.215.698.242.180;-6.551.309.967.041.010;6.203.105.545.043.940;896.560.668.945.312;-353.482.580.184.937;104.853.534.698.486;-267.329.382.896.423;-0.79894638061523;-0.13476929068565
114;1611121440;-7.372.644.805.908.200;-6.551.989.746.093.750;6.201.622.772.216.790;900.399.112.701.416;-356.640.100.479.126;134.582.901.000.977;-103.646.719.455.719;-0.50469011068344;-0.02334737777710
115;1611129773;-7.372.937.011.718.750;-6.552.133.941.650.390;6.202.214.813.232.420;902.416.229.248.047;-364.323.616.027.832;139.278.006.553.650;-0.48600453138351;-0.37701591849327;0.11578914523125
116;1611138106;-7.370.211.029.052.730;-6.552.632.141.113.280;6.200.893.020.629.880;895.779.895.782.471;-357.089.924.812.317;120.578.324.794.769;0.54820865392685;-0.48410898447037;0.18095174431801
117;1611146439;-7.369.506.072.998.040;-6.552.591.705.322.260;6.201.798.248.291.010;899.233.913.421.631;-361.738.586.425.781;134.305.357.933.044;105.410.254.001.617;-0.46319499611855;0.37191867828369
118;1611154772;-7.366.248.321.533.200;-6.552.912.902.832.030;6.200.195.693.969.720;902.198.791.503.906;-381.182.837.486.267;134.323.954.582.214;0.86199593544006;-0.32216304540634;0.37640118598938
119;1611163105;-7.366.097.259.521.480;-6.552.948.760.986.320;6.201.226.425.170.890;898.933.601.379.395;-372.706.818.580.627;127.404.308.319.092;0.52614194154739;-0.54626190662384;0.30076235532761
120;1611171438;-7.363.755.035.400.390;-6.553.400.421.142.570;6.200.128.936.767.570;896.197.605.133.057;-353.288.221.359.253;132.133.758.068.085;0.31674563884735;-0.60389399528503;0.29359033703804
121;1611179771;-7.364.054.870.605.460;-6.553.376.007.080.070;6.201.138.305.664.060;898.565.864.562.988;-366.436.576.843.262;139.108.490.943.909;-0.03977891057730;-0.51879072189331;0.36995920538902
122;1611188104;-7.362.507.629.394.530;-6.553.731.536.865.230;6.200.107.192.993.160;900.444.221.496.582;-373.796.844.482.422;128.318.428.993.225;-0.54952776432037;-0.57657641172409;0.39421588182449
123;1611196437;-7.363.659.667.968.750;-6.553.670.501.708.980;6.201.430.130.004.880;898.809.051.513.672;-361.323.714.256.287;119.228.589.534.760;-0.71902996301651;-0.65678733587265;0.45216807723045
124;1611204770;-7.362.402.343.750.000;-6.553.926.086.425.780;6.200.325.775.146.480;896.498.012.542.725;-357.068.490.982.056;123.469.519.615.173;-0.98325353860855;-0.51225900650024;0.50842976570129
125;1611213103;-7.363.899.230.957.030;-6.553.698.730.468.750;6.201.477.813.720.700;899.509.334.564.209;-369.246.196.746.826;123.722.004.890.442;-131.707.119.941.711;-0.51831686496735;0.61896800994873
126;1611221436;-7.362.957.763.671.870;-6.553.857.421.875.000;6.200.230.789.184.570;900.178.146.362.305;-376.562.142.372.131;123.626.875.877.380;-149.012.088.775.635;-0.35838156938553;0.55985033512115
127;1611229769;-7.364.044.189.453.120;-6.553.744.506.835.930;6.200.973.129.272.460;903.541.374.206.543;-381.591.296.195.984;130.500.042.438.507;-127.170.836.925.507;-0.36086612939835;0.42893597483635
128;1611238102;-7.362.667.846.679.680;-6.554.151.153.564.450;6.199.399.948.120.110;900.857.639.312.744;-382.624.888.420.105;133.807.516.098.022;-134.173.750.877.380;-0.31737318634987;0.25194162130356
129;1611246435;-7.363.632.202.148.430;-6.554.249.572.753.900;6.199.914.932.250.970;898.412.132.263.184;-365.978.789.329.529;124.167.633.056.641;-137.585.580.348.969;-0.32387918233871;0.15862895548344
130;1611254768;-7.362.386.322.021.480;-6.554.576.873.779.290;6.198.488.235.473.630;902.318.954.467.773;-361.322.212.219.238;118.368.792.533.875;-130.326.497.554.779;-0.30259376764297;0.31269857287407
131;1611263101;-7.364.042.663.574.210;-6.554.466.247.558.590;6.198.913.955.688.470;899.354.457.855.225;-382.964.372.634.888;134.364.187.717.438;-230.058.073.997.498;-0.21028004586697;0.38682618737221
132;1611271434;-7.364.620.971.679.680;-6.554.553.222.656.250;6.197.538.375.854.490;887.349.987.030.029;-319.523.668.289.185;115.264.821.052.551;-345.706.391.334.534;-0.27526339888573;0.62014627456665
133;1611279767;-7.366.598.510.742.180;-6.554.154.968.261.710;6.198.031.997.680.660;899.633.693.695.068;-343.626.594.543.457;112.480.747.699.738;-261.293.363.571.167;-0.14400324225426;0.72677832841873
134;1611288100;-7.366.575.622.558.590;-6.553.866.577.148.430;6.196.924.972.534.180;895.578.956.604.004;-392.293.024.063.110;148.508.214.950.562;-236.337.447.166.443;-0.14095513522625;0.98532831668854
135;1611296433;-7.367.892.456.054.680;-6.553.211.975.097.650;6.197.402.191.162.100;902.810.287.475.586;-362.894.511.222.839;129.695.856.571.198;-184.011.375.904.083;-0.05088267847896;102.052.223.682.404
136;1611304766;-7.365.373.992.919.920;-6.552.749.633.789.060;6.195.569.229.125.970;895.208.454.132.080;-355.956.983.566.284;116.264.474.391.937;-0.22709581255913;0.14609079062939;117.657.721.042.633
137;1611313099;-7.363.787.841.796.870;-6.551.914.978.027.340;6.195.153.808.593.750;905.117.893.218.994;-385.206.341.743.469;123.773.515.224.457;0.67059350013733;0.43576216697693;110.024.642.944.336
138;1611321432;-7.360.303.497.314.450;-6.551.377.868.652.340;6.192.601.394.653.320;903.122.234.344.482;-380.650.687.217.712;119.097.697.734.833;0.16249671578407;0.54763233661652;114.180.576.801.300
139;1611329765;-7.359.869.384.765.620;-6.550.373.840.332.030;6.192.224.121.093.750;889.304.351.806.641;-332.238.817.214.966;111.268.913.745.880;-0.67376959323883;0.47586119174957;129.938.435.554.504
140;1611338098;-7.357.541.656.494.140;-6.549.448.394.775.390;6.189.768.218.994.140;897.630.405.426.025;-337.659.621.238.708;110.148.501.396.179;-109.812.057.018.280;0.67473018169403;157.012.677.192.688
141;1611346431;-7.356.898.498.535.150;-6.547.898.864.746.090;6.188.622.665.405.270;901.827.239.990.234;-392.628.383.636.475;126.422.667.503.357;-125.641.667.842.865;102.748.942.375.183;182.168.424.129.486
142;1611354764;-7.354.547.119.140.620;-6.546.627.044.677.730;6.186.056.518.554.680;900.558.090.209.961;-382.728.934.288.025;128.585.278.987.885;-107.865.393.161.774;105.084.967.613.220;178.456.950.187.683
143;1611363097;-7.353.121.185.302.730;-6.545.053.863.525.390;6.184.712.982.177.730;893.815.612.792.969;-341.523.575.782.776;121.385.383.605.957;-0.53532475233078;113.271.272.182.465;182.101.857.662.201
144;1611371430;-7.349.311.065.673.820;-6.543.708.801.269.530;6.181.603.240.966.790;899.153.900.146.484;-345.126.104.354.858;126.972.627.639.771;-0.02557581290603;114.913.129.806.519;193.907.427.787.781
145;1611379763;-7.349.228.668.212.890;-6.542.295.837.402.340;6.180.451.965.332.030;910.090.255.737.305;-469.869.995.117.188;155.196.011.066.437;-193.824.207.782.745;0.98755681514740;166.149.306.297.302
146;1611388096;-7.350.132.751.464.840;-6.541.511.535.644.530;6.178.136.444.091.790;891.513.729.095.459;-372.709.155.082.703;116.235.995.292.664;-476.753.950.119.019;0.66123145818710;135.117.650.032.043
147;1611396429;-7.353.125.762.939.450;-6.540.428.924.560.540;6.177.287.292.480.460;891.664.791.107.178;-312.727.761.268.616;102.544.724.941.254;-529.785.585.403.442;0.73144012689590;132.287.275.791.168
148;1611404762;-7.354.822.540.283.200;-6.539.444.732.666.010;6.175.046.920.776.360;899.704.170.227.051;-394.070.410.728.455;130.297.172.069.550;-555.576.610.565.186;0.84631991386414;145.468.366.146.088
149;1611413095;-7.357.803.344.726.560;-6.538.402.557.373.040;6.174.000.167.846.680;910.549.354.553.223;-426.381.921.768.188;132.186.686.992.645;-549.913.311.004.639;0.81184315681458;124.751.579.761.505
150;1611421428;-7.358.363.342.285.150;-6.537.750.244.140.620;6.171.224.212.646.480;886.587.715.148.926;-342.471.218.109.131;136.143.696.308.136;-486.897.134.780.884;0.81937372684479;114.708.220.958.710
151;1611429761;-7.360.424.041.748.040;-6.536.521.911.621.090;6.170.359.420.776.360;889.115.524.291.992;-302.661.275.863.647;141.406.071.186.066;-419.540.691.375.732;0.78652352094650;149.173.462.390.900
152;1611438094;-7.360.046.386.718.750;-6.535.443.115.234.370;6.168.008.041.381.830;904.424.953.460.693;-394.876.050.949.097;137.256.419.658.661;-331.311.154.365.540;0.69821846485138;174.235.701.560.974
153;1611446427;-7.361.194.610.595.700;-6.534.109.497.070.310;6.167.337.036.132.810;901.526.451.110.840;-421.419.095.993.042;131.805.860.996.246;-288.983.631.134.033;0.73021060228348;163.856.840.133.667
154;1611454760;-7.360.677.337.646.480;-6.533.222.198.486.320;6.164.863.204.956.050;895.821.380.615.234;-339.754.247.665.405;122.463.691.234.589;-325.399.351.119.995;0.73938035964966;147.133.266.925.812
155;1611463093;-7.362.895.965.576.170;-6.531.895.446.777.340;6.164.216.613.769.530;893.267.059.326.172;-344.872.093.200.684;119.422.638.416.290;-414.918.613.433.838;0.71691685914993;163.723.635.673.523
156;1611471426;-7.363.430.023.193.350;-6.530.761.718.750.000;6.161.556.625.366.210;902.144.622.802.734;-402.220.106.124.878;114.742.350.578.308;-474.688.100.814.819;0.86992341279984;176.637.041.568.756
157;1611479759;-7.366.295.623.779.290;-6.529.282.379.150.390;6.160.532.379.150.390;898.277.568.817.139;-387.285.709.381.104;120.091.509.819.031;-533.394.765.853.882;0.94803410768509;175.452.399.253.845
158;1611488092;-7.367.296.600.341.790;-6.528.155.517.578.120;6.157.669.067.382.810;895.541.095.733.643;-355.043.697.357.178;127.861.535.549.164;-552.254.438.400.269;0.97152239084244;173.054.885.864.258
159;1611496425;-7.369.866.943.359.370;-6.526.822.662.353.510;6.156.232.452.392.570;898.195.743.560.791;-390.348.911.285.400;126.944.231.987.000;-543.230.533.599.854;109.539.270.401.001;152.855.491.638.184
160;1611504758;-7.370.058.441.162.100;-6.525.962.066.650.390;6.152.942.657.470.700;903.079.223.632.812;-412.412.643.432.617;130.861.222.743.988;-500.915.813.446.045;110.148.894.786.835;134.605.348.110.199
161;1611513091;-7.372.041.320.800.780;-6.525.022.125.244.140;6.151.347.732.543.940;897.680.282.592.773;-384.187.722.206.116;138.123.059.272.766;-489.778.709.411.621;103.978.431.224.823;105.794.465.541.840
162;1611521424;-7.372.727.203.369.140;-6.524.536.132.812.500;6.148.448.944.091.790;897.065.067.291.260;-374.812.150.001.526;132.423.067.092.896;-511.607.170.104.980;0.90013539791107;0.87990015745163
163;1611529757;-7.375.087.738.037.100;-6.523.883.819.580.070;6.146.708.679.199.210;898.310.947.418.213;-399.379.754.066.467;127.438.592.910.767;-550.863.599.777.222;101.376.032.829.285;0.70554411411285
164;1611538090;-7.376.522.064.208.980;-6.523.816.680.908.200;6.143.744.277.954.100;898.958.206.176.758;-396.370.935.440.063;127.193.808.555.603;-613.802.957.534.790;0.69161003828049;0.46835637092590
165;1611546423;-7.380.342.102.050.780;-6.523.457.336.425.780;6.142.443.084.716.790;895.512.866.973.877;-372.174.978.256.226;124.385.857.582.092;-678.293.085.098.267;0.70385348796844;0.42793700098991
166;1611554756;-7.382.646.942.138.670;-6.523.460.388.183.590;6.139.545.059.204.100;896.487.522.125.244;-374.377.226.829.529;124.881.720.542.908;-707.146.215.438.843;0.70124089717865;0.33234468102455
167;1611563089;-7.385.990.142.822.260;-6.523.333.740.234.370;6.138.043.975.830.070;899.238.872.528.076;-396.501.135.826.111;127.696.979.045.868;-642.972.326.278.687;0.72365331649780;0.13923896849155
168;1611571422;-7.385.307.312.011.710;-6.523.571.014.404.290;6.134.161.376.953.120;900.951.290.130.615;-401.946.544.647.217;122.583.341.598.511;-458.375.692.367.554;104.974.818.229.675;-0.02900812402368
169;1611579755;-7.384.971.618.652.340;-6.523.850.250.244.140;6.131.828.308.105.460;897.303.104.400.635;-391.377.520.561.218;138.795.542.716.980;-292.236.638.069.153;0.98640418052673;-0.44628965854645
170;1611588088;-7.381.621.551.513.670;-6.524.488.067.626.950;6.127.861.404.418.940;899.166.202.545.166;-379.654.192.924.500;133.607.232.570.648;-143.172.037.601.471;104.214.072.227.478;-0.57756257057190
171;1611596421;-7.378.529.357.910.150;-6.524.851.989.746.090;6.125.157.928.466.790;896.833.419.799.805;-379.888.916.015.625;129.603.791.236.877;-0.01474099233747;113.614.523.410.797;-0.59884804487228
172;1611604754;-7.373.081.207.275.390;-6.525.557.708.740.230;6.120.932.006.835.930;896.859.169.006.348;-377.144.384.384.155;137.132.155.895.233;0.77408778667450;108.489.096.164.703;-0.64316064119339
173;1611613087;-7.369.718.933.105.460;-6.526.111.602.783.200;6.118.470.382.690.430;898.959.255.218.506;-377.820.324.897.766;134.153.711.795.807;0.56950694322586;0.95484751462936;-0.78567826747894
174;1611621420;-7.365.139.770.507.810;-6.526.963.043.212.890;6.114.607.238.769.530;896.618.175.506.592;-375.892.615.318.298;124.467.337.131.500;0.11526405811310;0.84639674425125;-0.75122708082199
175;1611629753;-7.362.895.202.636.710;-6.527.551.269.531.250;6.112.497.711.181.640;896.560.955.047.607;-370.653.176.307.678;126.991.569.995.880;-0.38512283563614;0.77267897129059;-0.77427983283997
176;1611638086;-7.359.300.231.933.590;-6.528.417.205.810.540;6.108.826.828.002.930;895.633.888.244.629;-363.769.984.245.300;128.617.417.812.347;-0.84912467002869;0.75077891349792;-0.75127828121185
177;1611646419;-7.357.803.344.726.560;-6.528.885.650.634.760;6.106.849.670.410.150;896.882.057.189.941;-366.053.915.023.804;130.140.960.216.522;-114.093.482.494.354;0.74735933542252;-0.62122201919556
178;1611654752;-7.354.653.167.724.600;-6.529.650.878.906.250;6.103.374.481.201.170;897.904.968.261.719;-383.812.260.627.747;132.369.077.205.658;-115.990.209.579.468;0.71261358261108;-0.61782807111740
179;1611663085;-7.353.038.787.841.790;-6.530.121.612.548.820;6.101.343.154.907.220;899.685.287.475.586;-388.159.751.892.090;123.711.991.310.120;-105.823.934.078.217;0.77275580167770;-0.63345289230347
180;1611671418;-7.349.343.872.070.310;-6.530.905.151.367.180;6.097.525.024.414.060;896.252.632.141.113;-365.730.571.746.826;121.109.795.570.374;-0.88444679975510;0.85945999622345;-0.68811362981796
181;1611679751;-7.347.124.481.201.170;-6.531.333.923.339.840;6.095.139.312.744.140;895.447.921.752.930;-358.696.460.723.877;127.043.759.822.845;-0.72019547224045;0.95724248886108;-0.63384985923767
182;1611688084;-7.343.208.312.988.280;-6.531.906.127.929.680;6.091.518.783.569.330;896.282.768.249.512;-374.828.267.097.473;128.517.270.088.196;-0.39804524183273;0.84187597036362;-0.42089316248894
183;1611696417;-7.340.846.252.441.400;-6.532.112.884.521.480;6.089.266.204.833.980;897.793.960.571.289;-378.185.129.165.649;131.226.062.774.658;-0.40297597646713;0.96519571542740;-0.36312022805214
184;1611704750;-7.336.549.377.441.400;-6.532.553.100.585.930;6.085.240.936.279.290;896.080.303.192.139;-363.041.830.062.866;126.958.668.231.964;-0.37191867828369;110.378.134.250.641;-0.34481880068779
185;1611713083;-7.334.273.529.052.730;-6.532.583.618.164.060;6.083.006.286.621.090;897.245.502.471.924;-359.413.909.912.109;124.413.692.951.202;-0.48645275831223;101.665.449.142.456;-0.15779647231102
186;1611721416;-7.330.527.496.337.890;-6.532.819.366.455.070;6.079.144.287.109.370;898.491.573.333.740;-370.569.539.070.129;128.444.314.002.991;-0.85586118698120;109.160.184.860.229;-0.08774156123400
187;1611729749;-7.329.154.205.322.260;-6.532.771.301.269.530;6.076.971.054.077.140;897.784.423.828.125;-379.711.771.011.353;132.116.115.093.231;-150.191.640.853.882;101.461.827.754.974;-0.05916888266802
188;1611738082;-7.326.557.159.423.820;-6.532.930.755.615.230;6.073.506.546.020.500;896.460.628.509.521;-372.527.408.599.854;134.401.190.280.914;-179.575.002.193.451;0.93817257881165;0.05291901156306
189;1611746415;-7.325.674.438.476.560;-6.532.907.867.431.640;6.071.760.177.612.300;897.478.675.842.285;-369.803.905.487.061;133.717.632.293.701;-162.620.925.903.320;0.79993247985840;-0.02729196473956
190;1611754748;-7.322.848.510.742.180;-6.533.192.443.847.650;6.068.381.881.713.860;899.075.889.587.402;-376.241.683.959.961;136.905.419.826.508;-142.836.487.293.243;0.84990602731705;-0.08059519529343
191;1611763081;-7.321.205.139.160.150;-6.533.204.650.878.900;6.066.444.396.972.650;899.082.279.205.322;-384.749.269.485.474;132.642.316.818.237;-0.92353403568268;0.88079667091370;-0.09545144438744
192;1611771414;-7.317.845.153.808.590;-6.533.745.574.951.170;6.063.060.760.498.040;900.373.363.494.873;-383.195.686.340.332;130.208.921.432.495;-0.78767615556717;0.76970785856247;-0.38350915908813
193;1611779747;-7.316.787.719.726.560;-6.533.968.353.271.480;6.061.699.295.043.940;897.098.159.790.039;-369.078.850.746.155;134.877.574.443.817;-0.99625277519226;0.53072696924210;-0.25525864958763
194;1611788080;-7.314.640.808.105.460;-6.534.476.470.947.260;6.058.808.135.986.320;895.169.162.750.244;-366.150.808.334.351;128.941.333.293.915;-169.293.439.388.275;0.56991672515869;-0.29841864109039
195;1611796413;-7.314.346.313.476.560;-6.534.757.232.666.010;6.057.395.172.119.140;900.608.825.683.594;-386.219.382.286.072;125.579.333.305.359;-196.769.833.564.758;0.53462028503418;-0.33061572909355
196;1611804746;-7.312.385.559.082.030;-6.535.361.480.712.890;6.054.298.782.348.630;898.377.799.987.793;-383.409.857.749.939;130.144.989.490.509;-214.648.580.551.147;0.63003337383270;-0.42784741520882
197;1611813079;-7.312.068.176.269.530;-6.535.711.669.921.870;6.052.573.013.305.660;898.099.231.719.971;-368.639.349.937.439;136.633.980.274.200;-228.270.220.756.531;0.65854197740555;-0.45415315032005
198;1611821412;-7.310.459.136.962.890;-6.536.324.310.302.730;6.049.700.927.734.370;896.459.388.732.910;-362.798.762.321.472;133.664.095.401.764;-231.422.042.846.680;0.53427445888519;-0.42207136750221
199;1611829745;-7.310.477.447.509.760;-6.536.476.135.253.900;6.048.439.788.818.350;897.156.906.127.930;-370.202.541.351.318;129.531.407.356.262;-217.637.777.328.491;0.50565063953400;-0.15787334740162
200;1611838078;-7.308.612.060.546.870;-6.536.968.231.201.170;6.045.516.586.303.710;898.454.189.300.537;-378.892.660.140.991;128.186.428.546.906;-206.495.547.294.617;0.59222668409348;-0.28363922238350
201;1611846411;-7.308.156.585.693.350;-6.537.152.099.609.370;6.043.891.143.798.820;898.540.687.561.035;-373.784.947.395.325;127.752.065.658.569;-200.811.743.736.267;0.66942805051804;-0.24678033590317
202;1611854744;-7.306.077.575.683.590;-6.537.703.704.833.980;6.040.822.982.788.080;897.369.384.765.625;-366.850.662.231.445;129.492.902.755.737;-196.700.680.255.890;0.64040708541870;-0.37925714254379
203;1611863077;-7.305.906.677.246.090;-6.537.860.107.421.870;6.039.445.114.135.740;897.010.803.222.656;-369.116.091.728.210;133.021.700.382.233;-207.786.512.374.878;0.55910748243332;-0.18026015162468
204;1611871410;-7.304.147.338.867.180;-6.538.214.111.328.120;6.036.594.390.869.140;900.202.369.689.941;-375.880.289.077.759;133.321.487.903.595;-211.095.857.620.239;0.61353772878647;-0.12690570950508
205;1611879743;-7.303.947.448.730.460;-6.538.410.186.767.570;6.035.183.334.350.580;898.697.185.516.357;-370.237.636.566.162;127.804.493.904.114;-208.081.078.529.358;0.56066995859146;-0.23164232075214
206;1611888076;-7.302.151.489.257.810;-6.538.636.779.785.150;6.032.505.035.400.390;898.293.018.341.064;-361.767.005.920.410;127.361.881.732.941;-187.384.772.300.720;0.58026486635208;0.04636176303029
207;1611896409;-7.301.663.208.007.810;-6.538.663.482.666.010;6.031.048.965.454.100;898.886.299.133.301;-371.529.889.106.750;133.989.369.869.232;-178.325.033.187.866;0.64102184772491;-0.04517070576549
208;1611904742;-7.299.536.895.751.950;-6.538.881.683.349.600;6.028.194.046.020.500;899.384.498.596.191;-381.724.524.497.986;134.402.847.290.039;-166.606.485.843.658;0.67752212285995;0.02254052646458
209;1611913075;-7.298.818.206.787.100;-6.538.983.154.296.870;6.026.621.627.807.610;898.021.793.365.479;-375.083.088.874.817;129.912.996.292.114;-163.187.003.135.681;0.67104172706604;-0.14934378862381
210;1611921408;-7.296.701.812.744.140;-6.539.320.373.535.150;6.023.717.498.779.290;896.747.493.743.896;-368.692.040.443.420;125.901.353.359.222;-172.989.571.094.513;0.66302442550659;-0.12716186046600
211;1611929741;-7.296.199.035.644.530;-6.539.399.719.238.280;6.022.117.614.746.090;897.649.288.177.490;-367.121.171.951.294;123.486.340.045.929;-192.169.535.160.065;0.69232726097107;-0.12557378411293
212;1611938074;-7.293.919.372.558.590;-6.539.677.429.199.210;6.019.083.023.071.280;897.942.733.764.648;-371.310.663.223.267;129.833.781.719.208;-167.472.267.150.879;0.74831986427307;-0.08369451016188
213;1611946407;-7.292.818.450.927.730;-6.539.572.143.554.680;6.017.156.219.482.420;899.846.839.904.785;-370.518.398.284.912;129.739.260.673.523;-156.149.506.568.909;0.91190528869629;0.03881837427616
214;1611954740;-7.290.121.459.960.930;-6.539.636.993.408.200;6.013.968.658.447.260;897.460.746.765.137;-369.206.142.425.537;125.140.392.780.304;-133.752.417.564.392;0.90583455562592;0.13238719105721
215;1611963073;-7.288.583.374.023.430;-6.539.451.599.121.090;6.011.969.375.610.350;895.734.882.354.736;-366.166.949.272.156;124.961.590.766.907;-111.325.860.023.499;0.97572296857834;0.11767178028822
216;1611971406;-7.285.559.844.970.700;-6.539.411.163.330.070;6.008.640.289.306.640;901.203.823.089.600;-367.672.586.441.040;131.432.056.427.002;-109.664.785.861.969;101.292.777.061.462;0.23113003373146
217;1611979739;-7.284.469.604.492.180;-6.539.160.919.189.450;6.006.816.864.013.670;896.783.447.265.625;-371.803.951.263.428;130.416.619.777.679;-146.253.454.685.211;0.91414642333984;0.21533888578415
218;1611988072;-7.281.610.107.421.870;-6.539.128.112.792.960;6.003.620.147.705.070;899.118.804.931.641;-373.410.558.700.562;123.542.487.621.307;-114.309.918.880.463;0.95366913080215;0.23029758036137
219;1611996405;-7.279.810.333.251.950;-6.538.898.468.017.570;6.001.506.805.419.920;898.404.216.766.357;-369.113.874.435.425;132.476.377.487.183;-0.92645400762558;104.488.146.305.084;0.15345486998558
220;1612004738;-7.277.074.432.373.040;-6.538.726.806.640.620;5.998.307.037.353.510;897.839.450.836.182;-367.802.190.780.640;135.782.158.374.786;-129.342.925.548.553;100.920.081.138.611;0.39151358604431
221;1612013071;-7.276.174.926.757.810;-6.538.226.318.359.370;5.996.674.728.393.550;898.719.310.760.498;-371.693.730.354.309;129.286.038.875.580;-148.161.697.387.695;0.91307055950165;0.53111112117767
222;1612021404;-7.273.647.308.349.600;-6.537.953.948.974.600;5.993.656.539.916.990;896.632.099.151.611;-370.037.412.643.433;128.897.356.987.000;-134.214.746.952.057;0.96542614698410;0.52142900228500
223;1612029737;-7.272.815.704.345.700;-6.537.494.659.423.820;5.992.069.625.854.490;897.740.936.279.297;-368.844.008.445.740;136.191.880.702.972;-151.473.617.553.711;0.87575066089630;0.49414977431297
224;1612038070;-7.270.706.176.757.810;-6.537.148.284.912.100;5.989.179.992.675.780;897.435.951.232.910;-372.252.202.033.997;129.948.687.553.406;-170.408.940.315.247;0.93526530265808;0.62507694959641
225;1612046403;-7.269.730.377.197.260;-6.536.666.870.117.180;5.987.377.548.217.770;897.934.436.798.096;-368.435.716.629.028;124.977.934.360.504;-157.535.207.271.576;0.98979806900024;0.48396810889244
226;1612054736;-7.267.642.974.853.510;-6.536.303.710.937.500;5.984.408.950.805.660;897.906.398.773.193;-367.484.426.498.413;134.595.692.157.745;-180.848.026.275.635;0.98215216398239;0.62813788652420
227;1612063069;-7.267.401.885.986.320;-6.535.722.351.074.210;5.982.851.028.442.380;899.776.935.577.393;-373.001.408.576.965;132.077.836.990.356;-219.079.828.262.329;0.90625739097595;0.63536119461060
228;1612071402;-7.265.632.629.394.530;-6.535.225.677.490.230;5.979.937.744.140.620;897.605.705.261.230;-373.694.443.702.698;130.348.169.803.619;-212.924.742.698.669;101.539.957.523.346;0.78195136785507
229;1612079735;-7.264.925.384.521.480;-6.534.558.868.408.200;5.978.091.812.133.780;897.210.693.359.375;-369.159.626.960.754;130.059.492.588.043;-194.482.493.400.574;107.436.358.928.680;0.68515515327454
230;1612088068;-7.262.592.315.673.820;-6.534.065.246.582.030;5.974.951.934.814.450;897.324.085.235.596;-368.380.761.146.545;128.325.164.318.085;-169.995.272.159.576;112.372.207.641.602;0.74719280004501
231;1612096401;-7.261.655.426.025.390;-6.533.214.569.091.790;5.973.110.961.914.060;898.615.932.464.600;-374.252.152.442.932;130.678.439.140.320;-166.277.360.916.138;114.061.462.879.181;0.89886754751205
232;1612104734;-7.259.708.404.541.010;-6.532.586.669.921.870;5.970.392.608.642.570;897.188.282.012.939;-372.947.001.457.214;135.044.884.681.702;-169.511.151.313.782;0.98020547628403;0.95167130231857
233;1612113067;-7.259.082.794.189.450;-6.531.621.551.513.670;5.968.760.299.682.610;897.571.659.088.135;-365.585.541.725.159;135.725.128.650.665;-180.904.376.506.805;108.240.640.163.422;106.068.539.619.446
234;1612121400;-7.256.967.926.025.390;-6.530.920.410.156.250;5.965.908.050.537.100;898.104.476.928.711;-368.804.264.068.604;136.004.173.755.646;-164.239.728.450.775;107.216.048.240.662;101.165.962.219.238
235;1612129733;-7.256.021.881.103.510;-6.529.981.994.628.900;5.964.269.638.061.520;897.635.364.532.471;-381.035.256.385.803;133.535.516.262.054;-143.087.518.215.179;107.797.503.471.375;102.797.603.607.178
236;1612138066;-7.254.058.074.951.170;-6.529.369.354.248.040;5.961.600.112.915.030;896.567.344.665.527;-381.397.652.626.038;134.067.499.637.604;-161.832.010.746.002;0.95915043354034;0.93929958343506
237;1612146399;-7.253.437.042.236.320;-6.528.629.302.978.510;5.960.124.206.542.960;896.522.426.605.225;-370.074.772.834.778;132.744.610.309.601;-164.375.507.831.573;0.92592895030975;0.82383054494858
238;1612154732;-7.251.887.512.207.030;-6.528.074.645.996.090;5.957.783.508.300.780;896.738.052.368.164;-369.782.423.973.083;137.924.540.042.877;-175.383.222.103.119;0.79169750213623;0.90796053409576
239;1612163065;-7.251.776.123.046.870;-6.527.237.701.416.010;5.956.709.671.020.500;896.190.547.943.115;-372.342.491.149.902;137.144.148.349.762;-181.713.771.820.068;0.77091163396835;0.99383223056793
240;1612171398;-7.250.073.242.187.500;-6.526.641.082.763.670;5.954.534.912.109.370;897.338.676.452.637;-375.061.750.411.987;130.677.056.312.561;-138.584.530.353.546;0.72859686613083;0.98632746934891
241;1612179731;-7.249.431.610.107.420;-6.525.740.814.208.980;5.953.629.302.978.510;896.994.400.024.414;-370.887.064.933.777;135.943.353.176.117;-0.99819952249527;0.71379184722900;109.047.484.397.888
242;1612188064;-7.247.444.152.832.030;-6.524.982.452.392.570;5.951.643.753.051.750;895.706.176.757.812;-369.794.821.739.197;135.961.949.825.287;-0.83698350191116;0.70206046104431;119.405.853.748.322
243;1612196397;-7.246.464.538.574.210;-6.524.053.192.138.670;5.950.516.891.479.490;897.696.113.586.426;-375.301.074.981.689;133.401.954.174.042;-0.83439654111862;0.82915842533112;109.395.837.783.813
244;1612204730;-7.244.458.770.751.950;-6.523.308.563.232.420;5.948.400.878.906.250;896.164.894.104.004;-370.903.062.820.435;128.232.479.095.459;-0.95222216844559;0.76737701892853;115.305.054.187.775
245;1612213063;-7.243.603.515.625.000;-6.522.306.823.730.460;5.946.997.833.251.950;897.961.997.985.840;-370.009.899.139.404;129.897.451.400.757;-128.288.888.931.274;0.98864537477493;113.280.224.800.110
246;1612221396;-7.242.024.993.896.480;-6.521.469.116.210.930;5.944.677.734.375.000;894.887.828.826.904;-371.799.778.938.293;135.755.324.363.708;-168.701.767.921.448;0.90454107522964;122.635.829.448.700
247;1612229729;-7.241.578.674.316.400;-6.520.557.403.564.450;5.943.559.646.606.440;896.716.117.858.887;-375.324.225.425.720;134.641.528.129.578;-146.422.481.536.865;0.82032144069672;107.257.044.315.338
248;1612238062;-7.239.566.040.039.060;-6.519.871.520.996.090;5.941.248.321.533.200;897.986.316.680.908;-377.611.565.589.905;138.585.460.186.005;-115.316.557.884.216;0.85039258003235;104.744.279.384.613
249;1612246395;-7.238.401.031.494.140;-6.518.931.579.589.840;5.940.024.185.180.660;898.763.179.779.053;-387.407.255.172.729;132.335.424.423.218;-0.71354848146439;0.88376790285110;108.842.563.629.150
250;1612254728;-7.235.904.693.603.510;-6.518.179.321.289.060;5.937.703.323.364.250;898.188.209.533.691;-377.725.911.140.442;134.998.464.584.351;-0.58135354518890;0.88499748706818;112.034.106.254.578
251;1612263061;-7.234.902.191.162.100;-6.517.205.047.607.420;5.936.730.957.031.250;895.480.251.312.256;-364.986.705.780.029;140.750.098.228.455;-0.63680827617645;0.77713578939438;116.537.070.274.353
252;1612271394;-7.232.774.353.027.340;-6.516.399.383.544.920;5.934.638.595.581.050;895.639.610.290.527;-371.074.461.936.951;133.226.704.597.473;-0.76516115665436;0.80351853370667;119.982.194.900.513
253;1612279727;-7.231.990.051.269.530;-6.515.427.398.681.640;5.933.874.511.718.750;896.985.912.322.998;-379.316.711.425.781;133.032.906.055.450;-0.67131066322327;0.67583155632019;119.349.515.438.080
254;1612288060;-7.229.709.625.244.140;-6.514.603.424.072.260;5.931.933.212.280.270;896.925.735.473.633;-377.135.086.059.570;138.773.024.082.184;-0.42111080884933;0.74360680580139;125.025.629.997.253
255;1612296393;-7.228.411.102.294.920;-6.513.665.008.544.920;5.930.891.036.987.300;896.502.971.649.170;-372.282.576.560.974;136.636.471.748.352;-0.35666537284851;0.79957395792007;111.088.931.560.516
256;1612304726;-7.226.298.522.949.210;-6.512.876.129.150.390;5.929.016.876.220.700;894.986.438.751.221;-377.472.639.083.862;131.936.299.800.873;-0.54580092430115;0.69716817140579;121.695.780.754.089
257;1612313059;-7.225.652.313.232.420;-6.511.844.635.009.760;5.928.274.536.132.810;896.640.300.750.732;-381.622.052.192.688;136.912.572.383.881;-0.81551879644394;0.69073903560638;126.629.078.388.214
258;1612321392;-7.224.046.325.683.590;-6.511.163.330.078.120;5.926.200.103.759.760;894.952.201.843.262;-375.650.644.302.368;134.745.466.709.137;-136.974.680.423.737;0.75860399007797;106.087.756.156.921
259;1612329725;-7.223.992.156.982.420;-6.510.293.579.101.560;5.925.387.191.772.460;893.892.002.105.713;-374.912.667.274.475;132.035.934.925.079;-160.177.338.123.322;0.66532975435257;106.555.211.544.037
260;1612338058;-7.222.448.730.468.750;-6.509.600.067.138.670;5.923.111.343.383.780;894.180.107.116.699;-377.075.648.307.800;135.113.787.651.062;-166.496.348.381.042;0.86617094278336;104.403.614.997.864
261;1612346391;-7.222.620.391.845.700;-6.508.626.556.396.480;5.922.386.932.373.040;895.686.626.434.326;-378.953.099.250.793;138.411.736.488.342;-177.342.712.879.181;0.66047585010529;119.978.356.361.389
262;1612354724;-7.221.412.658.691.400;-6.507.952.880.859.370;5.920.508.575.439.450;894.875.717.163.086;-379.316.806.793.213;136.825.931.072.235;-162.944.948.673.248;0.67300117015839;107.260.882.854.462
263;1612363057;-7.221.508.789.062.500;-6.507.013.702.392.570;5.919.830.322.265.620;895.137.023.925.781;-380.951.452.255.249;137.094.306.945.801;-163.251.054.286.957;0.62680596113205;116.788.101.196.289
264;1612371390;-7.220.261.383.056.640;-6.506.504.058.837.890;5.917.923.355.102.530;895.275.878.906.250;-381.020.689.010.620;141.181.135.177.612;-161.256.980.895.996;0.63189035654068;0.88080948591232
265;1612379723;-7.220.487.213.134.760;-6.505.862.426.757.810;5.917.394.638.061.520;895.216.464.996.338;-386.905.670.166.016;140.500.271.320.343;-162.793.827.056.885;0.44440695643425;0.84826660156250
266;1612388056;-7.218.895.721.435.540;-6.505.438.995.361.320;5.915.650.177.001.950;898.057.270.050.049;-387.141.895.294.189;142.765.736.579.895;-102.102.196.216.583;0.52504056692123;0.80182802677155
267;1612396389;-7.217.913.055.419.920;-6.505.022.430.419.920;5.914.944.458.007.810;898.813.247.680.664;-385.568.261.146.545;140.185.678.005.219;-0.36865288019180;0.44863328337669;0.56602334976196
268;1612404722;-7.215.657.043.457.030;-6.504.833.984.375.000;5.913.282.012.939.450;896.080.303.192.139;-386.689.853.668.213;138.580.632.209.778;-0.12449797987938;0.41566780209541;0.53082937002182
269;1612413055;-7.214.533.233.642.570;-6.504.573.059.082.030;5.912.613.296.508.780;895.020.198.822.021;-387.716.269.493.103;129.643.130.302.429;-0.16051159799099;0.37271273136139;0.39200025796890
270;1612421388;-7.212.523.651.123.040;-6.504.590.606.689.450;5.910.854.721.069.330;894.990.158.081.055;-389.715.480.804.443;129.609.549.045.563;-0.52182602882385;0.39095008373260;0.27747902274132
271;1612429721;-7.212.339.782.714.840;-6.504.561.614.990.230;5.910.086.822.509.760;897.448.635.101.318;-386.430.907.249.451;141.409.564.018.250;-139.589.905.738.831;0.33586665987968;0.11105051636696
272;1612438054;-7.211.786.651.611.320;-6.504.840.087.890.620;5.908.443.069.458.000;895.128.154.754.639;-383.382.582.664.490;140.044.462.680.817;-214.941.859.245.300;0.23294864594936;0.00411108462140
273;1612446387;-7.212.709.808.349.600;-6.504.998.016.357.420;5.907.938.003.540.030;895.662.021.636.963;-380.272.865.295.410;136.089.420.318.604;-243.809.103.965.759;0.14191566407681;-0.05939940735698
274;1612454720;-7.212.661.743.164.060;-6.505.448.150.634.760;5.906.586.456.298.820;895.522.499.084.473;-384.679.961.204.529;143.382.883.071.899;-243.284.010.887.146;0.03489939495921;-0.15588824450970
275;1612463053;-7.213.813.018.798.820;-6.505.889.892.578.120;5.906.443.786.621.090;894.865.036.010.742;-381.086.516.380.310;141.245.770.454.407;-231.767.845.153.809;-0.13911092281342;-0.32996258139610
276;1612471386;-7.213.691.711.425.780;-6.506.439.971.923.820;5.905.130.767.822.260;894.119.453.430.176;-376.734.733.581.543;138.062.250.614.166;-230.183.577.537.537;-0.02196420729160;-0.25820428133011
277;1612479719;-7.214.850.616.455.070;-6.506.936.645.507.810;5.904.983.520.507.810;896.060.466.766.357;-376.132.225.990.295;138.698.041.439.056;-233.277.821.540.833;-0.15754036605358;-0.39370363950729
278;1612488052;-7.215.338.897.705.070;-6.507.510.375.976.560;5.904.171.371.459.960;893.904.209.136.963;-379.298.949.241.638;142.547.225.952.148;-248.718.047.142.029;-0.26739978790283;-0.21112532913685
279;1612496385;-7.217.114.257.812.500;-6.507.962.036.132.810;5.904.630.279.541.010;893.977.737.426.758;-378.532.052.040.100;139.477.694.034.576;-241.200.304.031.372;-0.43350815773010;-0.24578139185905
280;1612504718;-7.217.794.036.865.230;-6.508.631.896.972.650;5.904.171.371.459.960;895.505.523.681.641;-376.845.765.113.831;138.545.811.176.300;-233.636.403.083.801;-0.46975225210190;-0.26578608155251
281;1612513051;-7.219.449.615.478.510;-6.509.102.630.615.230;5.904.609.298.706.050;893.558.979.034.424;-377.005.934.715.271;141.996.884.346.008;-228.954.100.608.826;-0.42935860157013;-0.27236893773079
282;1612521384;-7.220.165.252.685.540;-6.509.808.349.609.370;5.904.344.177.246.090;895.295.047.760.010;-379.351.544.380.188;140.716.278.553.009;-216.400.575.637.817;-0.57497555017471;-0.28310129046440
283;1612529717;-7.222.199.249.267.570;-6.510.401.153.564.450;5.905.157.089.233.390;894.761.562.347.412;-376.664.257.049.561;138.864.147.663.116;-233.501.935.005.188;-0.65134435892105;-0.35360455513000
284;1612538050;-7.223.178.863.525.390;-6.511.081.695.556.640;5.904.888.534.545.890;896.403.694.152.832;-373.019.695.281.982;141.160.595.417.023;-248.533.678.054.810;-0.56301373243332;-0.25605273246765
285;1612546383;-7.225.885.009.765.620;-6.511.676.788.330.070;5.906.009.292.602.530;895.084.953.308.105;-372.238.731.384.277;141.058.647.632.599;-280.425.906.181.335;-0.80145657062531;-0.31094402074814
286;1612554716;-7.227.729.797.363.280;-6.512.387.847.900.390;5.906.164.932.250.970;893.691.539.764.404;-372.428.584.098.816;132.236.993.312.836;-305.889.034.271.240;-0.77425426244736;-0.22733913362026
287;1612563049;-7.230.534.362.792.960;-6.512.827.301.025.390;5.907.331.466.674.800;896.021.080.017.090;-373.233.962.059.021;134.939.682.483.673;-287.746.477.127.075;-0.76692867279053;-0.12160358577967
288;1612571382;-7.232.344.055.175.780;-6.513.378.906.250.000;5.907.629.394.531.250;895.246.124.267.578;-373.333.954.811.096;137.048.017.978.668;-285.309.290.885.925;-0.77608573436737;-0.03790906816721
289;1612579715;-7.235.278.320.312.500;-6.513.779.449.462.890;5.908.984.375.000.000;895.074.272.155.762;-371.983.242.034.912;135.125.756.263.733;-282.472.491.264.343;-0.84361767768860;-0.04926898330450
290;1612588048;-7.236.966.705.322.260;-6.514.212.036.132.810;5.909.333.419.799.800;895.488.357.543.945;-377.252.078.056.335;135.371.148.586.273;-265.451.836.585.999;-0.75494116544724;0.11262580752373
291;1612596381;-7.239.700.317.382.810;-6.514.437.103.271.480;5.910.763.168.334.960;895.665.454.864.502;-381.631.088.256.836;135.458.743.572.235;-250.593.018.531.799;-0.81224024295807;0.15911564230919
292;1612604714;-7.241.609.954.833.980;-6.514.955.139.160.150;5.911.413.955.688.470;896.693.801.879.883;-379.197.621.345.520;135.287.845.134.735;-258.817.744.255.066;-0.92947661876678;0.05906642228365
293;1612613047;-7.244.692.230.224.600;-6.515.267.944.335.930;5.912.994.003.295.890;896.476.650.238.037;-377.745.008.468.628;130.466.127.395.630;-275.976.705.551.147;-0.91689997911453;0.08122273534536
294;1612621380;-7.246.999.359.130.850;-6.515.806.579.589.840;5.913.610.458.374.020;893.914.890.289.307;-378.724.336.624.146;136.445.164.680.481;-310.038.542.747.498;-0.91549122333527;0.02484580874443
295;1612629713;-7.251.540.374.755.850;-6.516.130.828.857.420;5.915.812.683.105.460;895.955.753.326.416;-375.263.881.683.350;135.608.875.751.495;-383.215.785.026.550;-122.201.657.295.227;0.16633883118629
296;1612638046;-7.255.364.227.294.920;-6.516.809.844.970.700;5.916.902.923.583.980;897.947.502.136.230;-382.937.264.442.444;127.826.309.204.102;-440.763.425.827.026;-118.997.347.354.889;-0.06381787359715
297;1612646379;-7.260.977.172.851.560;-6.517.471.313.476.560;5.919.097.518.920.890;897.643.947.601.318;-393.754.673.004.150;139.085.519.313.812;-512.380.695.343.018;-133.715.260.028.839;-0.22657069563866
298;1612654712;-7.266.865.539.550.780;-6.518.245.697.021.480;5.920.701.217.651.360;910.714.054.107.666;-374.935.007.095.337;136.226.618.289.948;-632.091.426.849.365;-146.855.366.230.011;-0.10203429311514
299;1612663045;-7.276.071.166.992.180;-6.518.836.975.097.650;5.923.529.434.204.100;879.631.423.950.195;-390.236.735.343.933;124.709.784.984.589;-874.689.102.172.852;-161.493.921.279.907;-0.05649220198393
300;1612671378;-7.285.605.621.337.890;-6.519.336.700.439.450;5.925.783.538.818.350;884.057.807.922.363;-284.951.877.593.994;0.89036756753922;-996.122.360.229.492;-163.946.485.519.409;0.26647770404816
301;1612679711;-7.296.707.916.259.760;-6.518.968.200.683.590;5.928.798.294.067.380;894.890.213.012.695;-329.200.863.838.196;127.115.154.266.357;-1.082.055.473.327.630;-136.521.315.574.646;106.792.151.927.948
302;1612688044;-7.308.615.112.304.680;-6.518.697.357.177.730;5.931.759.643.554.680;895.048.618.316.650;-419.884.920.120.239;139.400.303.363.800;-1.195.398.521.423.340;-156.254.518.032.074;111.446.261.405.945
303;1612696377;-7.319.671.630.859.370;-6.518.631.744.384.760;5.934.622.192.382.810;903.984.451.293.945;-432.262.134.552.002;107.618.510.723.114;-1.092.939.090.728.760;-140.166.246.891.022;0.69733476638794
304;1612704710;-7.327.400.207.519.530;-6.518.930.816.650.390;5.935.988.235.473.630;894.302.654.266.357;-365.944.266.319.275;118.830.239.772.797;-878.178.977.966.309;-117.538.607.120.514;0.38545584678650
305;1612713043;-7.334.434.509.277.340;-6.519.207.763.671.870;5.937.947.463.989.250;909.193.515.777.588;-389.089.679.718.018;166.427.183.151.245;-708.821.487.426.758;-108.451.962.471.008;0.16113917529583
306;1612721376;-7.338.249.969.482.420;-6.520.211.029.052.730;5.938.957.595.825.190;885.346.794.128.418;-444.078.445.434.570;136.036.717.891.693;-445.437.955.856.323;-121.371.793.746.948;-0.49595567584038
307;1612729709;-7.341.390.228.271.480;-6.521.149.444.580.070;5.941.207.504.272.460;906.313.991.546.631;-383.996.939.659.119;150.198.030.471.802;-209.766.530.990.601;-145.254.492.759.705;-0.55538064241409
308;1612738042;-7.342.694.854.736.320;-6.522.274.780.273.430;5.943.183.135.986.320;886.586.666.107.178;-336.409.115.791.321;158.051.335.811.615;-0.34424251317978;-164.401.113.986.969;-0.57461690902710
309;1612746375;-7.344.078.826.904.290;-6.523.374.176.025.390;5.945.898.437.500.000;905.650.615.692.139;-404.676.675.796.509;107.632.493.972.778;0.51405197381973;-172.992.134.094.238;-0.67292433977127
310;1612754708;-7.342.936.706.542.960;-6.524.944.305.419.920;5.946.899.032.592.770;901.361.751.556.396;-428.845.596.313.477;107.578.027.248.383;147.409.904.003.143;-142.518.877.983.093;-113.664.448.261.261
311;1612763041;-7.344.108.581.542.960;-6.526.451.110.839.840;5.948.783.874.511.710;902.771.091.461.182;-391.737.008.094.788;123.952.472.209.930;-0.13407769799232;-146.758.031.845.093;-126.071.977.615.356
312;1612771374;-7.346.119.689.941.400;-6.528.026.580.810.540;5.950.139.236.450.190;890.230.751.037.598;-355.824.923.515.320;116.975.867.748.260;-186.493.408.679.962;-149.196.517.467.499;-118.764.245.510.101
313;1612779707;-7.349.638.366.699.210;-6.529.572.296.142.570;5.952.376.556.396.480;897.440.242.767.334;-374.446.296.691.895;124.585.962.295.532;-256.433.033.943.176;-164.949.274.063.110;-125.631.415.843.964
314;1612788040;-7.352.279.663.085.930;-6.531.221.008.300.780;5.953.753.662.109.370;895.569.610.595.703;-385.050.249.099.731;142.382.121.086.121;-265.277.671.813.965;-162.336.623.668.671;-118.041.920.661.926
315;1612796373;-7.355.553.436.279.290;-6.532.823.181.152.340;5.956.488.418.579.100;895.242.023.468.018;-374.981.999.397.278;135.563.838.481.903;-173.017.740.249.634;-190.502.023.696.899;-125.423.943.996.429
316;1612804706;-7.356.313.323.974.600;-6.534.577.941.894.530;5.958.427.429.199.210;899.409.484.863.281;-377.536.296.844.482;134.115.982.055.664;0.21838696300983;-192.797.052.860.260;-122.444.999.217.987
317;1612813039;-7.357.647.705.078.120;-6.536.221.313.476.560;5.961.589.813.232.420;887.767.887.115.479;-362.233.448.028.564;152.692.282.199.860;106.724.274.158.478;-212.005.162.239.075;-124.594.044.685.364
318;1612821372;-7.359.066.009.521.480;-6.538.037.109.375.000;5.964.562.606.811.520;897.373.485.565.186;-374.708.676.338.196;126.762.104.034.424;0.55611062049866;-243.871.831.893.921;-114.730.000.495.911
319;1612829705;-7.361.949.157.714.840;-6.539.804.840.087.890;5.968.834.686.279.290;894.768.142.700.195;-375.950.002.670.288;122.912.740.707.397;0.41929224133492;-269.308.066.368.103;-123.278.760.910.034
320;1612838038;-7.364.951.324.462.890;-6.541.674.804.687.500;5.972.537.994.384.760;904.781.723.022.461;-385.742.235.183.716;139.110.720.157.623;-0.53472280502319;-279.161.882.400.513;-112.656.533.718.109
321;1612846371;-7.368.880.462.646.480;-6.543.669.891.357.420;5.976.717.376.708.980;913.996.124.267.578;-443.849.897.384.644;109.136.795.997.620;-0.93680226802826;-272.121.810.913.086;-151.125.264.167.786
322;1612854704;-7.369.074.249.267.570;-6.545.965.576.171.870;5.978.837.585.449.210;879.582.214.355.469;-365.729.594.230.652;0.72204226255417;110.640.704.631.805;-217.394.399.642.944;-183.765.470.981.598
323;1612863037;-7.370.716.857.910.150;-6.547.970.581.054.680;5.981.905.746.459.960;895.735.168.457.031;-306.204.175.949.097;149.256.336.688.995;0.59770822525024;-218.795.514.106.750;-167.871.868.610.382
324;1612871370;-7.375.138.854.980.460;-6.549.996.185.302.730;5.984.852.981.567.380;899.490.642.547.607;-394.066.333.770.752;134.315.907.955.170;-305.848.050.117.493;-246.120.762.825.012;-141.934.859.752.655
325;1612879703;-7.381.005.859.375.000;-6.551.735.687.255.850;5.988.510.513.305.660;900.236.225.128.174;-394.117.426.872.253;0.56031334400177;-382.711.267.471.313;-237.696.290.016.174;-129.204.607.009.888
326;1612888036;-7.384.230.041.503.900;-6.553.432.464.599.600;5.990.724.182.128.900;890.936.756.134.033;-318.120.813.369.751;113.794.422.149.658;-241.832.947.731.018;-199.205.732.345.581;-115.903.127.193.451
327;1612896369;-7.388.230.133.056.640;-6.554.691.314.697.260;5.993.493.652.343.750;894.725.418.090.820;-354.615.449.905.396;123.474.478.721.619;-255.380.320.549.011;-178.704.118.728.638;-0.86943680047989
328;1612904702;-7.389.291.381.835.930;-6.556.074.523.925.780;5.994.956.970.214.840;903.079.032.897.949;-416.290.760.040.283;0.94637244939804;-0.62005656957626;-148.627.865.314.484;-0.93211477994919
329;1612913035;-7.388.954.925.537.100;-6.557.317.352.294.920;5.996.310.043.334.960;896.906.948.089.600;-365.332.794.189.453;120.439.434.051.514;110.248.804.092.407;-110.224.473.476.410;-104.663.622.379.303
330;1612921368;-7.387.689.208.984.370;-6.558.699.035.644.530;5.996.747.589.111.320;899.251.842.498.779;-358.381.843.566.895;113.765.597.343.445;102.786.087.989.807;-104.541.933.536.530;-102.264.833.450.317
331;1612929701;-7.386.815.643.310.540;-6.560.057.830.810.540;5.997.432.708.740.230;904.715.442.657.471;-429.129.743.576.050;0.79328763484955;101.420.855.522.156;-0.82429182529449;-126.705.956.459.045
332;1612938034;-7.384.891.510.009.760;-6.561.843.872.070.310;5.996.601.486.206.050;900.948.619.842.529;-413.681.077.957.153;100.351.858.139.038;0.43792656064034;-0.56503719091415;-167.795.002.460.480
333;1612946367;-7.384.564.208.984.370;-6.563.382.720.947.260;5.995.906.829.833.980;886.423.015.594.482;-331.076.788.902.283;109.133.756.160.736;-114.829.897.880.554;-0.22828687727451;-167.228.949.069.977
334;1612954700;-7.385.411.834.716.790;-6.564.640.045.166.010;5.995.338.058.471.680;902.336.692.810.059;-310.615.563.392.639;128.257.369.995.117;-255.585.265.159.607;-0.43058806657791;-110.406.315.326.691
335;1612963033;-7.386.907.196.044.920;-6.565.836.334.228.510;5.995.287.322.998.040;901.832.008.361.816;-422.745.609.283.447;117.653.465.270.996;-263.051.772.117.615;-0.42139258980751;-118.492.722.511.292
336;1612971366;-7.384.941.864.013.670;-6.567.350.006.103.510;5.993.752.670.288.080;907.345.294.952.393;-439.920.568.466.187;0.90319663286209;-0.21665799617767;-0.02549896948040;-156.186.628.341.675
337;1612979699;-7.381.212.615.966.790;-6.568.832.397.460.930;5.991.938.018.798.820;894.530.868.530.273;-326.074.552.536.011;128.907.990.455.627;171.018.576.622.009;0.32156112790108;-175.645.792.484.283
338;1612988032;-7.377.906.036.376.950;-6.570.091.247.558.590;5.990.182.495.117.180;887.557.888.031.006;-326.062.512.397.766;122.362.589.836.121;115.743.041.038.513;0.17620031535625;-131.748.092.174.530
339;1612996365;-7.375.308.227.539.060;-6.571.011.352.539.060;5.989.102.172.851.560;902.538.585.662.842;-371.995.019.912.720;106.167.471.408.844;115.699.505.805.969;0.15949985384941;-101.072.490.215.302
340;1613004698;-7.372.821.807.861.320;-6.571.760.559.082.030;5.987.959.289.550.780;890.073.299.407.959;-335.489.082.336.426;138.080.620.765.686;0.83707314729691;0.04446630552411;-0.63317108154297
341;1613013031;-7.372.750.091.552.730;-6.572.247.314.453.120;5.987.984.466.552.730;894.279.861.450.195;-345.440.816.879.272;131.613.743.305.206;-0.66518884897232;-0.22006469964981;-0.35594820976257
342;1613021364;-7.373.702.239.990.230;-6.573.164.367.675.780;5.988.356.781.005.850;898.573.493.957.520;-405.488.014.221.191;162.722.325.325.012;-168.386.697.769.165;-0.82000130414963;-0.52822959423065
343;1613029697;-7.377.451.324.462.890;-6.574.261.474.609.370;5.990.549.468.994.140;913.449.192.047.119;-406.559.705.734.253;167.590.808.868.408;-288.082.003.593.445;-145.085.430.145.264;-0.76160085201263
344;1613038030;-7.379.611.206.054.680;-6.575.665.283.203.120;5.992.314.910.888.670;884.731.101.989.746;-363.196.396.827.698;103.771.650.791.168;-162.439.060.211.182;-166.878.008.842.468;-0.87107598781586
345;1613046363;-7.381.269.073.486.320;-6.577.060.699.462.890;5.995.079.803.466.790;904.582.881.927.490;-362.162.089.347.839;149.705.529.212.952;0.25616794824600;-182.067.251.205.444;-102.655.446.529.388
346;1613054696;-7.384.236.145.019.530;-6.578.866.577.148.430;5.997.971.725.463.860;915.032.958.984.375;-427.730.369.567.871;184.619.712.829.590;-135.238.051.414.490;-232.303.190.231.323;-119.303.429.126.740
347;1613063029;-7.390.140.533.447.260;-6.580.973.052.978.510;6.002.638.626.098.630;894.328.880.310.059;-416.438.198.089.600;111.734.855.175.018;-275.684.738.159.180;-295.184.850.692.749;-158.947.849.273.682
348;1613071362;-7.394.419.860.839.840;-6.583.215.332.031.250;6.006.442.642.211.910;897.550.773.620.605;-334.130.787.849.426;0.95945906639099;-186.242.377.758.026;-278.194.904.327.393;-168.804.216.384.888
349;1613079695;-7.400.448.608.398.430;-6.585.443.115.234.370;6.011.156.845.092.770;896.487.808.227.539;-359.251.570.701.599;147.234.916.687.012;-285.392.522.811.890;-300.825.095.176.697;-172.574.627.399.445
350;1613088028;-7.407.231.140.136.710;-6.587.859.344.482.420;6.015.618.896.484.370;909.944.915.771.484;-410.876.607.894.897;126.365.017.890.930;-420.799.589.157.104;-325.635.027.885.437;-170.084.917.545.319
351;1613096361;-7.414.261.627.197.260;-6.590.248.870.849.600;6.020.897.293.090.820;896.125.316.619.873;-369.795.680.046.082;114.317.882.061.005;-343.790.411.949.158;-331.864.428.520.203;-184.738.838.672.638
352;1613104694;-7.419.683.074.951.170;-6.592.690.277.099.600;6.025.725.555.419.920;898.482.418.060.303;-331.577.706.336.975;135.444.343.090.057;-215.714.120.864.868;-340.401.697.158.813;-170.679.187.774.658
353;1613113027;-7.424.916.076.660.150;-6.594.852.447.509.760;6.031.233.215.332.030;900.750.350.952.148;-374.911.260.604.858;122.823.560.237.885;-102.540.183.067.322;-334.302.878.379.822;-156.061.112.880.707
354;1613121360;-7.427.798.461.914.060;-6.597.283.172.607.420;6.035.565.185.546.870;900.903.034.210.205;-386.128.568.649.292;0.95908957719803;0.34812310338020;-316.106.581.687.927;-176.616.573.333.740
355;1613129693;-7.431.046.295.166.010;-6.599.400.329.589.840;6.040.468.597.412.100;888.075.828.552.246;-342.734.909.057.617;0.99380403757095;0.69747561216354;-303.811.717.033.386;-159.749.579.429.626
356;1613138026;-7.433.302.307.128.900;-6.601.251.220.703.120;6.043.715.667.724.600;908.026.218.414.307;-333.122.539.520.264;0.61648714542389;-0.10295642167330;-247.908.639.907.837;-121.953.213.214.874
357;1613146359;-7.434.748.840.332.030;-6.602.686.309.814.450;6.046.252.059.936.520;895.030.021.667.480;-381.152.534.484.863;0.59738677740097;0.26474872231483;-170.210.433.006.287;-112.442.636.489.868
358;1613154692;-7.434.925.842.285.150;-6.603.992.462.158.200;6.046.779.632.568.350;907.182.216.644.287;-349.201.083.183.289;0.60313487052917;-0.54162585735321;-0.94169461727142;-102.342.963.218.689
359;1613163025;-7.435.111.236.572.260;-6.604.745.483.398.430;6.046.847.152.709.960;890.732.765.197.754;-341.973.853.111.267;0.60555255413055;-0.92896419763565;-0.31967842578888;-0.65963053703308
360;1613171358;-7.434.376.525.878.900;-6.605.424.499.511.710;6.045.703.887.939.450;899.955.654.144.287;-350.522.923.469.543;104.700.458.049.774;-131.571.364.402.771;-0.01597047410905;-0.45822581648827
361;1613179691;-7.434.970.092.773.430;-6.605.751.800.537.100;6.045.638.275.146.480;904.572.868.347.168;-366.608.238.220.215;134.248.137.474.060;-156.560.599.803.925;-0.11993865668774;-0.18743215501308
362;1613188024;-7.434.249.114.990.230;-6.605.979.156.494.140;6.045.183.181.762.690;898.362.731.933.594;-336.831.736.564.636;125.126.850.605.011;-0.54093420505524;-0.12767416238785;0.10002359002829
363;1613196357;-7.432.965.850.830.070;-6.605.811.309.814.450;6.045.413.589.477.530;900.791.835.784.912;-348.929.262.161.255;116.426.110.267.639;101.358.091.831.207;-0.09983147680759;0.42396679520607
364;1613204690;-7.430.785.369.873.040;-6.605.886.077.880.850;6.044.893.646.240.230;905.437.660.217.285;-390.307.044.982.910;113.774.549.961.090;110.043.883.323.669;-0.11176770925522;0.33096155524254
365;1613213023;-7.430.392.456.054.680;-6.605.817.413.330.070;6.045.413.589.477.530;905.306.053.161.621;-374.091.529.846.191;121.926.641.464.233;0.26259717345238;-0.26896232366562;0.34543362259865
366;1613221356;-7.430.686.950.683.590;-6.605.776.214.599.600;6.045.730.972.290.030;890.355.873.107.910;-320.653.367.042.542;126.242.673.397.064;-0.95414304733276;-0.47218567132950;0.58282631635666
367;1613229689;-7.433.103.179.931.640;-6.605.390.930.175.780;6.047.370.147.705.070;899.853.706.359.863;-341.613.578.796.387;118.990.969.657.898;-188.004.624.843.597;-0.68711459636688;0.85992097854614
368;1613238022;-7.436.085.510.253.900;-6.605.159.759.521.480;6.048.940.658.569.330;901.575.756.072.998;-389.276.909.828.186;125.510.191.917.419;-278.739.237.785.339;-0.96755212545395;0.93618756532669
369;1613246355;-7.440.831.756.591.790;-6.605.003.356.933.590;6.051.505.279.541.010;901.954.078.674.316;-384.553.813.934.326;125.019.311.904.907;-366.336.011.886.597;-119.742.691.516.876;0.71827423572540
370;1613254688;-7.444.130.706.787.100;-6.605.255.889.892.570;6.053.161.621.093.750;903.497.123.718.262;-397.085.237.503.052;112.765.026.092.529;-308.709.144.592.285;-119.404.590.129.852;0.41095480322838
371;1613263021;-7.447.415.924.072.260;-6.605.737.304.687.500;6.055.403.900.146.480;927.927.303.314.209;-456.730.031.967.163;132.108.116.149.902;-226.410.603.523.254;-125.221.586.227.417;-0.06530348956585
372;1613271354;-7.449.396.514.892.570;-6.607.327.270.507.810;6.056.868.362.426.750;892.844.867.706.299;-453.719.615.936.279;135.552.310.943.604;-169.982.457.160.950;-150.564.301.013.947;-118.587.481.975.555
373;1613279687;-7.450.537.872.314.450;-6.608.937.835.693.350;6.058.594.894.409.180;898.058.605.194.092;-329.645.848.274.231;0.87101095914841;-0.25776880979538;-137.129.640.579.224;-143.930.220.603.943
374;1613288020;-7.448.094.940.185.540;-6.609.994.506.835.930;6.058.722.686.767.570;887.074.470.520.020;-245.551.323.890.686;0.49888274073601;223.978.567.123.413;-0.53455632925034;-0.91292971372604
375;1613296353;-7.444.470.214.843.750;-6.610.835.266.113.280;6.058.448.791.503.900;904.247.474.670.410;-419.923.925.399.780;0.99831718206406;326.726.174.354.553;-0.18798287212849;-0.80380028486252
376;1613304686;-7.444.734.191.894.530;-6.611.874.389.648.430;6.058.984.375.000.000;918.342.018.127.441;-436.374.187.469.482;165.488.171.577.454;-0.56703507900238;-0.73268240690231;-0.83232176303864
377;1613313019;-7.446.757.507.324.210;-6.613.147.735.595.700;6.059.654.998.779.290;892.894.077.301.025;-329.987.168.312.073;0.91049104928970;-247.176.098.823.547;-0.77028411626816;-118.636.167.049.408
378;1613321352;-7.446.728.515.625.000;-6.614.254.760.742.180;6.059.737.777.709.960;890.096.950.531.006;-340.858.006.477.356;0.78266406059265;-0.72786682844162;-0.56629228591919;-0.94438403844833
379;1613329685;-7.446.296.691.894.530;-6.615.484.619.140.620;6.059.861.373.901.360;907.600.688.934.326;-399.142.932.891.846;146.930.122.375.488;-0.12752045691013;-0.49700576066971;-120.324.146.747.589
380;1613338018;-7.446.757.507.324.210;-6.616.683.959.960.930;6.060.023.880.004.880;908.153.152.465.820;-391.900.610.923.767;121.714.615.821.838;-125.412.440.299.988;-0.67859798669815;-0.99119406938553
381;1613346351;-7.446.289.825.439.450;-6.617.712.402.343.750;6.060.403.823.852.530;908.906.745.910.645;-340.059.733.390.808;0.83956491947174;0.19816450774670;-0.55267828702927;-0.94321852922440
382;1613354684;-7.443.713.378.906.250;-6.618.689.727.783.200;6.059.827.041.625.970;881.119.918.823.242;-339.072.513.580.322;106.227.588.653.564;155.772.984.027.863;-0.30077517032623;-0.79067301750183
383;1613363017;-7.442.565.155.029.290;-6.619.065.856.933.590;6.060.429.000.854.490;900.010.776.519.775;-306.278.324.127.197;126.868.569.850.922;125.995.135.307.312;-0.44637924432755;-0.15675911307335
384;1613371350;-7.442.147.064.208.980;-6.619.514.465.332.030;6.061.145.401.000.970;890.984.630.584.717;-357.778.763.771.057;137.130.725.383.759;0.39407497644424;-0.72707277536392;-0.02278386056423
385;1613379683;-7.442.829.895.019.530;-6.620.002.746.582.030;6.062.538.146.972.650;916.522.407.531.738;-418.740.320.205.688;112.070.024.013.519;-0.07288531213999;-0.85183984041214;-0.18371811509132
386;1613388016;-7.441.979.217.529.290;-6.620.949.554.443.350;6.062.802.505.493.160;899.345.588.684.082;-412.818.479.537.964;0.85087388753891;0.41108283400536;-0.68626934289932;-0.64592695236206
387;1613396349;-7.440.025.329.589.840;-6.621.886.444.091.790;6.062.615.203.857.420;899.844.837.188.721;-353.056.454.658.508;0.87120199203491;135.658.097.267.151;-0.25933131575584;-0.90816545486450
388;1613404682;-7.438.011.932.373.040;-6.623.196.411.132.810;6.062.118.148.803.710;899.072.265.625.000;-365.568.208.694.458;144.228.494.167.328;0.98769766092300;-0.42002215981483;-118.891.024.589.539
389;1613413015;-7.439.065.551.757.810;-6.624.691.009.521.480;6.063.279.724.121.090;915.234.375.000.000;-418.983.030.319.214;148.591.172.695.160;-0.76989996433258;-106.963.777.542.114;-137.373.006.343.842
390;1613421348;-7.440.406.799.316.400;-6.626.677.703.857.420;6.064.541.244.506.830;885.145.187.377.930;-366.506.791.114.807;124.992.406.368.256;-115.276.873.111.725;-153.828.859.329.224;-166.661.584.377.289
391;1613429681;-7.442.682.647.705.070;-6.628.696.441.650.390;6.067.366.409.301.750;888.824.081.420.898;-318.255.949.020.386;155.792.689.323.425;-0.40969967842102;-201.125.526.428.223;-176.820.182.800.293
392;1613438014;-7.446.438.598.632.810;-6.631.038.665.771.480;6.071.202.087.402.340;922.960.758.209.229;-418.057.060.241.699;194.654.226.303.101;-121.589.505.672.455;-282.879.805.564.880;-175.515.162.944.794
393;1613446347;-7.452.462.005.615.230;-6.634.035.491.943.350;6.076.936.340.332.030;889.010.429.382.324;-445.314.121.246.338;144.855.356.216.431;-170.492.208.003.998;-366.845.846.176.147;-253.144.240.379.333
394;1613454680;-7.456.802.368.164.060;-6.637.545.013.427.730;6.082.347.106.933.590;918.066.501.617.432;-374.749.350.547.791;119.101.977.348.328;-0.17552155256271;-391.676.259.040.833;-293.266.320.228.577
395;1613463013;-7.460.807.037.353.510;-6.641.233.062.744.140;6.088.412.857.055.660;912.527.084.350.586;-408.097.839.355.469;127.835.011.482.239;108.235.526.084.900;-403.125.858.306.885;-329.510.474.205.017
396;1613471346;-7.462.282.562.255.850;-6.645.204.162.597.650;6.093.220.520.019.530;886.952.781.677.246;-345.588.445.663.452;0.77809858322144;262.686.800.956.726;-372.824.168.205.261;-357.993.555.068.970
397;1613479679;-7.462.031.555.175.780;-6.648.471.832.275.390;6.097.365.188.598.630;904.005.146.026.611;-325.236.248.970.032;0.49162274599075;408.247.327.804.565;-299.977.278.709.412;-305.289.673.805.237
398;1613488012;-7.458.557.128.906.250;-6.651.446.533.203.120;6.099.223.709.106.440;872.837.448.120.117;-289.725.542.068.481;0.45807158946991;527.955.532.073.975;-212.376.570.701.599;-273.507.523.536.682
399;1613496345;-7.455.949.401.855.460;-6.653.285.217.285.150;6.101.064.682.006.830;905.598.926.544.189;-294.824.957.847.595;0.79705786705017;437.576.961.517.334;-147.988.808.155.060;-169.433.057.308.197
400;1613504678;-7.454.888.153.076.170;-6.654.431.152.343.750;6.102.782.821.655.270;884.185.791.015.625;-310.727.024.078.369;0.99152916669846;232.750.129.699.707;-130.381.584.167.480;-0.80374896526337
401;1613513011;-7.453.610.229.492.180;-6.654.345.703.125.000;6.104.741.287.231.440;862.552.452.087.402;-209.491.229.057.312;0.67102253437042;290.968.728.065.491;-0.92057555913925;0.55005288124084
402;1613521344;-7.448.895.263.671.870;-6.653.431.701.660.150;6.105.373.001.098.630;906.327.629.089.355;-337.799.024.581.909;0.98272603750229;550.284.719.467.163;-0.16946378350258;146.517.264.842.987
403;1613529677;-7.438.574.218.750.000;-6.651.979.064.941.400;6.104.581.451.416.010;919.626.331.329.346;-427.632.045.745.850;0.45782017707825;1.073.223.781.585.690;0.78735607862473;177.872.967.720.032
404;1613538010;-7.421.623.229.980.460;-6.650.500.488.281.250;6.100.635.528.564.450;931.212.234.497.070;-419.619.035.720.825;0.37147372961044;1.517.810.153.961.180;218.043.756.484.985;147.361.290.454.865
405;1613546343;-7.401.060.485.839.840;-6.648.935.699.462.890;6.095.346.832.275.390;899.108.314.514.160;-324.433.970.451.355;0.82449424266815;1.807.439.422.607.420;290.507.745.742.798;131.561.136.245.728
406;1613554676;-7.384.577.178.955.070;-6.647.161.102.294.920;6.089.869.689.941.400;934.354.305.267.334;-378.423.976.898.193;134.648.287.296.295;1.291.386.699.676.510;295.868.778.228.760;162.562.048.435.211
407;1613563009;-7.378.591.918.945.310;-6.645.025.634.765.620;6.085.835.266.113.280;937.371.349.334.717;-375.310.873.985.291;0.52353268861771;196.489.346.027.374;252.748.465.538.025;211.947.560.310.364
408;1613571342;-7.375.521.087.646.480;-6.642.472.076.416.010;6.079.613.494.873.040;878.323.841.094.971;-280.784.058.570.862;-0.85153877735138;-408.290.863.037.109;343.385.696.411.133;258.179.950.714.111
409;1613579675;-7.374.047.851.562.500;-6.638.112.640.380.850;6.072.669.982.910.150;877.513.885.498.047;-109.474.229.812.622;0.81648045778275;-664.793.252.944.946;462.032.222.747.803;429.138.422.012.329
410;1613588008;-7.375.209.808.349.600;-6.632.211.303.710.930;6.065.639.114.379.880;888.905.715.942.383;-264.992.880.821.228;103.318.059.444.427;-1.001.820.278.167.720;499.221.515.655.518;627.051.973.342.896
411;1613596341;-7.370.806.884.765.620;-6.625.499.725.341.790;6.056.748.199.462.890;893.630.886.077.881;-432.703.304.290.771;-0.15944558382034;-526.468.658.447.266;633.091.783.523.560;672.681.188.583.374
412;1613604674;-7.355.730.438.232.420;-6.618.686.676.025.390;6.043.518.066.406.250;882.607.078.552.246;-350.542.545.318.604;0.17884233593941;276.080.513.000.488;836.307.525.634.766;628.709.173.202.515
413;1613613007;-7.338.991.546.630.850;-6.611.492.156.982.420;6.029.909.133.911.130;874.648.094.177.246;-262.020.540.237.427;180.793.249.607.086;436.932.754.516.602;874.249.744.415.283;660.319.662.094.116
414;1613621340;-7.327.002.716.064.450;-6.604.158.782.958.980;6.017.953.491.210.930;892.337.131.500.244;-396.559.095.382.690;198.859.286.308.289;0.36523339152336;784.374.475.479.126;721.248.245.239.258
415;1613629673;-7.315.134.429.931.640;-6.597.071.075.439.450;6.007.165.145.874.020;918.402.862.548.828;-467.451.810.836.792;114.783.704.280.853;163.357.353.210.449;745.153.999.328.613;682.137.870.788.574
416;1613638006;-7.300.006.866.455.070;-6.591.177.368.164.060;5.995.267.105.102.530;944.872.093.200.684;-562.073.612.213.135;197.260.880.470.276;423.380.279.541.016;741.194.057.464.600;547.857.809.066.772
417;1613646339;-7.288.319.396.972.650;-6.586.831.665.039.060;5.985.323.715.209.960;950.240.325.927.734;-530.201.435.089.111;292.375.636.100.769;235.179.686.546.326;614.603.328.704.834;375.576.448.440.552
418;1613654672;-7.280.903.625.488.280;-6.584.102.630.615.230;5.977.905.273.437.500;913.825.321.197.510;-423.232.030.868.530;203.483.057.022.095;-0.01828856393695;437.561.607.360.840;228.183.126.449.585
419;1613663005;-7.274.040.222.167.960;-6.582.461.547.851.560;5.972.906.875.610.350;895.332.050.323.486;-361.993.622.779.846;222.629.714.012.146;198.525.667.190.552;288.400.864.601.135;135.263.633.728.027
420;1613671338;-7.266.298.675.537.100;-6.581.897.735.595.700;5.970.318.984.985.350;920.269.393.920.898;-481.113.672.256.470;255.457.878.112.793;565.969.610.214.233;134.881.997.108.459;0.49041014909744
421;1613679671;-7.254.172.515.869.140;-6.582.216.644.287.100;5.968.296.432.495.110;924.625.492.095.947;-483.021.450.042.725;140.305.721.759.796;1.155.980.682.373.040;0.78907215595245;-0.46170938014984
422;1613688004;-7.237.241.363.525.390;-6.583.312.988.281.250;5.965.917.587.280.270;907.654.666.900.635;-401.620.340.347.290;139.692.461.490.631;1.688.567.161.560.050;0.59806686639786;-132.270.634.174.347
423;1613696337;-7.221.772.003.173.820;-6.584.882.354.736.320;5.964.622.497.558.590;898.424.720.764.160;-349.216.103.553.772;194.207.811.355.591;1.636.663.055.419.920;-0.00987429078668;-178.891.170.024.872
424;1613704670;-7.209.589.385.986.320;-6.586.611.175.537.100;5.964.254.379.272.460;888.661.670.684.814;-322.506.380.081.177;134.812.736.511.230;1.338.734.531.402.580;-0.58733445405960;-174.245.977.401.733
425;1613713003;-7.201.848.602.294.920;-6.588.189.697.265.620;5.965.089.797.973.630;876.269.817.352.295;-295.283.222.198.486;106.566.274.166.107;942.362.022.399.902;-101.770.496.368.408;-147.404.837.608.337
426;1613721336;-7.199.445.343.017.570;-6.589.768.981.933.590;5.966.194.915.771.480;898.526.954.650.879;-347.580.909.729.004;104.093.384.742.737;319.122.624.397.278;-136.174.225.807.190;-120.321.583.747.864
427;1613729669;-7.202.394.866.943.350;-6.591.527.557.373.040;5.967.531.585.693.350;905.883.026.123.047;-461.541.032.791.138;0.63558244705200;-285.909.938.812.256;-131.927.394.866.943;-160.518.002.510.071
428;1613738002;-7.206.154.632.568.350;-6.593.886.566.162.100;5.967.392.730.712.890;914.502.048.492.432;-434.950.590.133.667;0.87873321771622;-551.685.810.089.111;-0.97345626354218;-238.252.091.407.776
429;1613746335;-7.211.008.453.369.140;-6.596.456.909.179.680;5.967.080.688.476.560;908.904.457.092.285;-371.454.906.463.623;145.220.911.502.838;-694.975.662.231.445;-0.84880447387695;-278.114.199.638.367
430;1613754668;-7.215.199.279.785.150;-6.599.475.097.656.250;5.965.708.541.870.110;907.000.732.421.875;-408.448.982.238.770;128.235.387.802.124;-737.676.000.595.093;-0.62159353494644;-333.521.723.747.253
431;1613763001;-7.218.062.591.552.730;-6.603.036.499.023.430;5.964.184.188.842.770;903.615.188.598.633;-422.126.197.814.941;125.860.416.889.191;-588.606.119.155.884;-0.64620870351791;-409.493.446.350.098
432;1613771334;-7.219.892.883.300.780;-6.607.059.478.759.760;5.961.981.964.111.320;897.299.671.173.096;-355.134.129.524.231;142.253.196.239.471;-550.581.884.384.155;-0.69382560253143;-452.100.229.263.306
433;1613779667;-7.223.059.082.031.250;-6.610.789.489.746.090;5.961.141.204.833.980;893.155.765.533.447;-324.688.935.279.846;136.808.216.571.808;-550.402.498.245.239;-102.099.621.295.929;-418.770.933.151.245
434;1613788000;-7.225.165.557.861.320;-6.614.723.205.566.400;5.959.976.577.758.780;891.449.928.283.691;-365.843.200.683.594;133.679.354.190.826;-472.211.217.880.249;-117.197.930.812.836;-421.925.401.687.622
435;1613796333;-7.227.226.257.324.210;-6.618.761.444.091.790;5.959.386.062.622.070;891.865.444.183.350;-396.867.084.503.174;139.151.763.916.016;-390.167.522.430.420;-124.934.709.072.113;-449.876.880.645.752
436;1613804666;-7.227.593.231.201.170;-6.623.070.526.123.040;5.958.068.847.656.250;886.120.986.938.477;-365.816.640.853.882;132.580.268.383.026;-278.187.274.932.861;-120.759.594.440.460;-471.000.957.489.014
437;1613812999;-7.227.054.595.947.260;-6.627.262.115.478.510;5.957.326.507.568.350;893.079.853.057.861;-341.064.834.594.727;125.425.755.977.631;-0.94894337654114;-123.508.000.373.840;-470.601.367.950.439
438;1613821332;-7.224.346.923.828.120;-6.631.704.711.914.060;5.955.527.496.337.890;899.802.780.151.367;-376.236.224.174.500;118.184.673.786.163;0.35101750493050;-107.778.310.775.757;-488.093.328.475.952
439;1613829665;-7.221.178.436.279.290;-6.635.980.987.548.820;5.953.738.021.850.580;897.887.039.184.570;-382.407.093.048.096;0.96032345294952;105.456.364.154.816;-0.78957158327103;-494.868.278.503.418
440;1613837998;-7.216.413.879.394.530;-6.640.554.046.630.850;5.950.376.129.150.390;892.551.040.649.414;-342.343.997.955.322;0.95430606603622;110.996.723.175.049;-0.41089072823524;-527.879.905.700.684
441;1613846331;-7.212.744.140.625.000;-6.644.736.480.712.890;5.947.184.371.948.240;894.830.036.163.330;-334.671.831.130.981;106.401.240.825.653;0.11454685032368;-0.12467730045319;-504.860.401.153.564
442;1613854664;-7.207.758.331.298.820;-6.648.686.218.261.710;5.942.789.077.758.780;918.011.665.344.238;-369.200.801.849.365;0.93627381324768;0.24064573645592;0.29166927933693;-472.768.306.732.178
443;1613862997;-7.201.976.776.123.040;-6.652.230.834.960.930;5.939.197.921.752.930;888.044.261.932.373;-327.720.832.824.707;164.543.616.771.698;220.605.158.805.847;0.27852919697762;-437.256.813.049.316
444;1613871330;-7.196.137.237.548.820;-6.655.411.529.541.010;5.935.548.400.878.900;923.911.285.400.391;-292.570.757.865.906;152.357.900.142.670;207.570.099.830.627;0.20394054055214;-371.868.705.749.512
445;1613879663;-7.190.534.973.144.530;-6.658.449.554.443.350;5.932.595.062.255.850;911.800.289.154.053;-419.790.887.832.642;0.99428641796112;268.821.406.364.441;0.16426409780979;-370.344.686.508.179
446;1613887996;-7.185.946.655.273.430;-6.661.681.365.966.790;5.929.674.530.029.290;912.512.779.235.840;-401.608.610.153.198;145.499.563.217.163;138.639.593.124.390;-0.13628052175045;-368.257.117.271.423
447;1613896329;-7.188.526.916.503.900;-6.664.285.278.320.310;5.930.179.214.477.530;887.842.464.447.021;-163.482.224.941.254;224.329.209.327.698;-331.951.546.669.006;-124.532.592.296.600;-269.504.046.440.125
448;1613904662;-7.194.741.058.349.600;-6.666.557.312.011.710;5.932.216.262.817.380;902.804.946.899.414;-340.966.701.507.568;125.450.325.012.207;-607.386.445.999.146;-194.595.181.941.986;-194.203.281.402.588
449;1613912995;-7.195.895.385.742.180;-6.669.392.395.019.530;5.932.873.916.625.970;925.581.264.495.850;-565.093.374.252.319;0.58380699157715;-144.022.464.752.197;-139.716.684.818.268;-293.350.887.298.584
450;1613921328;-7.192.440.795.898.430;-6.672.641.754.150.390;5.931.759.643.554.680;915.763.950.347.900;-354.707.121.849.060;159.132.599.830.627;207.716.083.526.611;-0.85447800159454;-356.062.221.527.100
451;1613929661;-7.195.421.600.341.790;-6.675.402.832.031.250;5.933.369.827.270.500;869.931.507.110.596;-137.086.284.160.614;205.184.268.951.416;-258.282.423.019.409;-179.692.828.655.243;-271.102.333.068.848
452;1613937994;-7.202.217.864.990.230;-6.676.834.106.445.310;5.936.248.016.357.420;882.228.565.216.064;-244.821.858.406.067;0.15258792042732;-579.682.254.791.260;-193.089.103.698.730;-0.95378446578979
453;1613946327;-7.206.938.934.326.170;-6.677.460.479.736.320;5.938.256.072.998.040;922.246.932.983.398;-388.956.689.834.595;0.71957844495773;-423.494.291.305.542;-117.965.090.274.811;-0.21934750676155
454;1613954660;-7.214.454.650.878.900;-6.678.089.141.845.700;5.939.860.534.667.960;925.734.806.060.791;-416.299.247.741.699;152.610.707.283.020;-804.708.480.834.961;-103.216.409.683.228;-0.24880391359329
455;1613962993;-7.223.701.477.050.780;-6.678.757.476.806.640;5.940.436.935.424.800;906.544.303.894.043;-353.525.447.845.459;0.27063193917274;-1.124.240.875.244.140;-0.54992491006851;-0.47938323020935
456;1613971326;-7.234.438.323.974.600;-6.679.416.656.494.140;5.940.290.069.580.070;911.000.347.137.451;-347.093.796.730.042;0.95662856101990;-1.389.083.385.467.520;-0.32747811079025;-0.45122051239014
457;1613979659;-7.256.198.120.117.180;-6.680.187.988.281.250;5.942.710.113.525.390;937.697.315.216.064;-398.277.616.500.854;232.961.416.244.507;-2.422.559.356.689.450;-141.413.688.659.668;-0.33915823698044
458;1613987992;-7.287.607.574.462.890;-6.681.687.164.306.640;5.946.791.076.660.150;925.614.547.729.492;-413.057.374.954.224;0.73359435796738;-3.410.127.639.770.500;-264.366.054.534.912;-0.69546556472778
459;1613996325;-7.322.700.500.488.280;-6.682.748.413.085.930;5.951.635.742.187.500;929.285.717.010.498;-312.846.040.725.708;0.23946891725063;-3.754.755.401.611.320;-260.649.466.514.587;-0.34982684254646
460;1614004658;-7.366.317.749.023.430;-6.683.236.694.335.930;5.959.510.040.283.200;900.354.290.008.545;-185.888.731.479.645;226.802.229.881.287;-4.447.772.598.266.600;-384.697.008.132.935;0.77603584527969
461;1614012991;-7.425.442.504.882.810;-6.683.471.679.687.500;5.972.797.775.268.550;904.767.513.275.146;-295.689.368.247.986;184.611.761.569.977;-5.707.347.488.403.320;-615.137.910.842.896;166.379.034.519.196
462;1614021324;-7.491.958.618.164.060;-6.684.489.440.917.960;5.988.682.556.152.340;939.066.505.432.129;-416.168.069.839.478;157.028.210.163.116;-6.315.775.680.541.990;-774.207.162.857.056;116.914.045.810.699
463;1614029657;-7.565.962.982.177.730;-6.687.387.084.960.930;6.008.529.281.616.210;1.027.239.894.866.940;-564.601.564.407.349;248.544.311.523.438;-6.768.913.269.042.960;-998.325.347.900.391;-0.78793549537659
464;1614037990;-7.645.753.479.003.900;-6.693.649.291.992.180;6.033.272.933.959.960;1.162.867.736.816.400;-570.729.351.043.701;281.878.566.741.943;-6.930.821.228.027.340;-1.332.198.333.740.230;-411.698.150.634.766
465;1614046323;-7.730.325.317.382.810;-6.703.877.258.300.780;6.063.439.178.466.790;1.372.614.383.697.510;-444.903.659.820.557;227.692.198.753.357;-6.895.223.236.083.980;-1.661.302.185.058.590;-853.684.139.251.709
466;1614054656;-7.811.190.032.958.980;-6.718.077.087.402.340;6.096.405.792.236.320;1.529.631.042.480.460;-212.269.783.020.020;123.989.820.480.347;-6.137.760.543.823.240;-1.871.247.291.564.940;-1.317.921.447.753.900
467;1614062989;-7.890.710.449.218.750;-6.736.334.228.515.620;6.133.798.217.773.430;1.677.436.256.408.690;-357.213.139.533.997;273.963.642.120.361;-5.481.984.710.693.350;-2.139.827.919.006.340;-1.781.614.303.588.860
468;1614071322;-7.994.115.447.998.040;-6.759.542.846.679.680;6.187.700.653.076.170;1.676.219.177.246.090;-200.489.807.128.906;646.997.547.149.658;-6.512.038.421.630.850;-2.951.488.685.607.910;-2.262.918.472.290.030
469;1614079655;-8.129.195.404.052.730;-6.782.183.837.890.620;6.261.047.363.281.250;1.431.951.904.296.870;250.056.576.728.821;280.198.979.377.747;-8.144.009.399.414.060;-3.741.510.009.765.620;-2.116.439.247.131.340
470;1614087988;-8.255.764.007.568.350;-6.806.575.775.146.480;6.330.714.416.503.900;1.879.194.259.643.550;-754.561.805.725.098;-323.605.799.674.988;-7.518.345.642.089.840;-3.524.240.875.244.140;-2.437.193.489.074.700
471;1614096321;-8.345.909.881.591.790;-6.835.933.685.302.730;6.384.878.540.039.060;2.362.056.350.708.000;-318.856.406.211.853;-131.582.069.396.973;-4.860.335.159.301.750;-2.827.938.652.038.570;-3.183.383.178.710.930
472;1614104654;-8.427.926.635.742.180;-6.865.659.332.275.390;6.435.229.492.187.500;2.657.025.909.423.820;383.154.344.558.716;0.44230869412422;-4.298.419.189.453.120;-2.586.749.839.782.710;-3.289.568.328.857.420
473;1614112987;-8.477.151.489.257.810;-6.896.900.939.941.400;6.473.602.294.921.870;2.582.895.278.930.660;-481.295.394.897.461;-428.302.478.790.283;-1.691.834.831.237.790;-2.019.075.202.941.890;-3.553.296.279.907.220
474;1614121320;-8.479.618.072.509.760;-6.933.679.962.158.200;6.494.894.409.179.680;2.198.847.770.690.910;-626.164.150.238.037;0.95570969581604;2.014.189.910.888.670;-1.311.255.550.384.520;-4.293.086.624.145.500
475;1614129653;-8.460.002.136.230.460;-6.973.295.593.261.710;6.510.877.990.722.650;1.904.684.066.772.460;-0.41802594065666;0.34476268291473;4.072.774.124.145.500;-1.111.524.581.909.180;-4.651.713.180.541.990
476;1614137986;-8.406.122.589.111.320;-7.011.656.188.964.840;6.517.318.725.585.930;1.731.751.632.690.430;136.248.660.087.585;-181.867.372.989.655;7.113.442.993.164.060;-723.216.056.823.730;-4.534.617.996.215.820
477;1614146319;-8.319.805.145.263.670;-7.049.127.960.205.070;6.517.347.717.285.150;1.610.532.188.415.520;-202.278.280.258.179;285.740.804.672.241;10.283.899.688.720.700;-504.780.197.143.555;-4.448.896.408.081.050
478;1614154652;-8.198.790.740.966.790;-7.088.294.219.970.700;6.512.638.092.041.010;1.457.901.000.976.560;-384.514.617.919.922;0.59558677673340;13.910.746.765.136.700;-425.040.435.791.016;-4.664.982.986.450.190
479;1614162985;-8.028.755.187.988.280;-7.129.113.769.531.250;6.496.730.804.443.350;1.404.288.005.828.850;-0.82076919078827;0.55382221937180;18.520.710.754.394.500;-147.699.010.372.162;-4.915.430.450.439.450
480;1614171318;-7.831.472.778.320.310;-7.170.759.582.519.530;6.477.221.679.687.500;1.468.712.425.231.930;-195.746.088.027.954;243.918.466.567.993;21.376.643.371.582.000;-202.595.424.652.100;-5.028.662.872.314.450
481;1614179651;-7.612.351.989.746.090;-7.214.949.798.583.980;6.451.109.313.964.840;1.409.942.913.055.420;-425.695.610.046.387;-109.005.022.048.950;23.238.024.902.343.700;-229.626.441.001.892;-5.366.413.497.924.800
482;1614187984;-7.377.643.585.205.070;-7.261.584.472.656.250;6.414.496.612.548.820;1.299.544.906.616.210;-232.558.584.213.257;-0.34143263101578;23.900.225.830.078.100;-173.621.249.198.914;-5.729.853.820.800.780
483;1614196317;-7.158.666.992.187.500;-7.309.501.647.949.210;6.375.796.508.789.060;1.135.415.554.046.630;-167.557.823.657.990;-0.23436377942562;21.762.368.774.414.000;-409.258.270.263.672;-5.877.279.663.085.930
484;1614204650;-6.967.983.245.849.600;-7.358.560.180.664.060;6.334.284.591.674.800;887.914.180.755.615;-304.821.586.608.887;-232.973.122.596.741;18.032.106.018.066.400;-609.460.210.800.171;-6.008.327.102.661.130
485;1614212983;-6.820.175.933.837.890;-7.409.113.311.767.570;6.291.532.516.479.490;652.618.455.886.841;-277.063.083.648.682;-0.89729058742523;12.731.967.163.085.900;-851.611.518.859.863;-6.154.717.636.108.390
486;1614221316;-6.731.922.149.658.200;-7.460.777.282.714.840;6.253.797.912.597.650;460.747.337.341.309;-200.279.521.942.139;-129.807.448.387.146;6.150.118.255.615.230;-1.222.519.397.735.590;-6.170.723.724.365.230
487;1614229649;-6.701.579.284.667.960;-7.512.826.538.085.930;6.221.868.515.014.640;331.550.455.093.384;-191.330.027.580.261;-144.935.500.621.796;-135.688.042.640.686;-1.506.453.895.568.840;-6.124.854.660.034.180
488;1614237982;-6.730.457.305.908.200;-7.565.303.802.490.230;6.199.986.648.559.570;251.580.977.439.880;-226.186.013.221.741;0.49010244011879;-6.084.505.462.646.480;-1.838.579.368.591.300;-6.040.031.433.105.460
489;1614246315;-6.813.357.543.945.310;-7.617.657.470.703.120;6.190.722.274.780.270;224.658.393.859.863;-191.834.306.716.919;-0.20517230033875;-11.104.815.673.828.100;-2.136.060.714.721.680;-5.896.194.839.477.530
490;1614254648;-6.934.807.586.669.920;-7.668.474.578.857.420;6.191.477.203.369.140;243.563.222.885.132;-0.31139221787453;-0.17702716588974;-14.564.584.350.585.900;-2.235.592.651.367.180;-5.655.714.035.034.180
491;1614262981;-7.085.666.656.494.140;-7.716.339.111.328.120;6.203.668.975.830.070;268.747.162.818.909;-0.41212022304535;0.55134004354477;-16.756.384.277.343.700;-2.270.849.037.170.410;-5.268.942.642.211.910
492;1614271314;-7.244.544.982.910.150;-7.761.520.385.742.180;6.222.445.678.710.930;275.304.174.423.218;-157.677.781.581.879;0.10138221830130;-16.945.700.073.242.100;-2.178.199.005.126.950;-4.970.658.874.511.710
493;1614279647;-7.388.910.675.048.820;-7.804.328.918.457.030;6.241.452.789.306.640;318.334.364.891.052;-117.807.269.096.375;151.480.543.613.434;-15.172.792.053.222.600;-1.952.293.205.261.230;-4.757.583.618.164.060
494;1614287980;-7.507.762.145.996.090;-7.845.145.416.259.760;6.260.448.455.810.540;371.418.118.476.868;-136.751.437.187.195;153.326.976.299.286;-12.109.089.660.644.500;-1.762.269.020.080.560;-4.575.333.023.071.280
495;1614296313;-7.583.407.592.773.430;-7.884.506.225.585.930;6.271.126.556.396.480;398.539.328.575.134;-206.901.717.185.974;0.82365500926971;-7.899.537.658.691.400;-1.434.846.019.744.870;-4.488.505.554.199.210
496;1614304646;-7.614.065.551.757.810;-7.922.576.141.357.420;6.272.515.106.201.170;413.903.236.389.160;-172.707.641.124.725;143.518.781.661.987;-3.593.879.699.707.030;-1.141.470.909.118.650;-4.404.354.476.928.710
497;1614312979;-7.605.933.380.126.950;-7.959.219.360.351.560;6.265.728.759.765.620;415.660.238.265.991;-150.845.766.067.505;106.768.488.883.972;0.97169047594070;-915.531.158.447.266;-4.284.607.696.533.200
498;1614321312;-7.561.071.777.343.750;-7.994.362.640.380.850;6.248.920.440.673.820;442.553.853.988.647;-199.189.603.328.705;0.79901015758514;3.320.763.397.216.790;-689.279.603.958.130;-4.157.022.857.666.010
499;1614329645;-7.485.997.772.216.790;-8.028.323.364.257.810;6.223.357.009.887.690;483.361.911.773.682;-197.083.508.968.353;0.93846595287323;5.908.680.725.097.650;-533.722.448.348.999;-4.055.352.401.733.390
500;1614337978;-7.383.525.848.388.670;-8.061.332.702.636.710;6.187.747.955.322.260;513.336.753.845.215;-259.432.554.244.995;0.61038470268250;8.005.418.395.996.090;-390.338.110.923.767;-3.984.373.855.590.820
501;1614346311;-7.255.097.961.425.780;-8.093.759.155.273.430;6.140.388.107.299.800;511.434.888.839.722;-291.107.559.204.102;0.89985483884811;9.723.120.880.126.950;-257.279.539.108.276;-3.968.039.321.899.410
502;1614354644;-7.113.697.052.001.950;-8.124.974.822.998.040;6.086.730.575.561.520;471.791.744.232.178;-196.466.934.680.939;0.97196495532990;10.529.212.188.720.700;-224.673.914.909.363;-3.849.824.905.395.500
503;1614362977;-6.970.449.829.101.560;-8.154.409.027.099.600;6.029.990.768.432.610;435.133.361.816.406;-229.503.178.596.497;0.40350624918938;10.380.035.400.390.600;-228.627.443.313.599;-3.650.000.762.939.450
504;1614371310;-6.836.077.117.919.920;-8.182.187.652.587.890;5.973.263.549.804.680;399.531.435.966.492;-258.664.917.945.862;0.95394039154053;9.310.913.085.937.500;-277.412.247.657.776;-3.444.137.954.711.910
505;1614379643;-6.728.321.075.439.450;-8.208.306.884.765.620;5.924.864.578.247.070;334.031.414.985.657;-214.692.234.992.981;0.87285947799683;7.102.603.912.353.510;-434.709.215.164.185;-3.189.322.662.353.510
506;1614387976;-6.655.297.851.562.500;-8.232.202.148.437.500;5.885.931.396.484.370;280.975.389.480.591;-224.396.419.525.146;0.09755418449640;4.055.797.576.904.290;-545.442.199.707.031;-2.865.733.337.402.340
507;1614396309;-6.626.841.735.839.840;-8.253.257.751.464.840;5.859.394.454.956.050;220.766.115.188.599;-204.414.176.940.918;-0.24059161543846;179.658.329.486.847;-630.557.489.395.142;-2.462.288.856.506.340
508;1614404642;-6.654.654.693.603.510;-8.271.128.845.214.840;5.850.669.860.839.840;154.681.169.986.725;-165.294.587.612.152;-0.18321374058723;-4.453.920.364.379.880;-740.196.561.813.354;-2.000.824.356.079.100
509;1614412975;-6.742.630.767.822.260;-8.285.568.237.304.680;5.863.789.367.675.780;122.353.076.934.814;-204.420.566.558.838;-0.02121630869806;-9.073.635.101.318.350;-863.729.953.765.869;-1.496.547.412.872.310
510;1614421308;-6.880.689.239.501.950;-8.296.812.438.964.840;5.896.750.259.399.410;109.884.321.689.606;-262.691.307.067.871;0.39506036043167;-12.720.730.590.820.300;-960.354.232.788.086;-1.049.546.813.964.840
511;1614429641;-7.052.153.778.076.170;-8.304.907.226.562.500;5.946.064.376.831.050;111.103.498.935.699;-239.239.001.274.109;125.162.124.633.789;-14.780.744.934.082.000;-1.017.764.091.491.690;-641.219.902.038.574
512;1614437974;-7.242.870.330.810.540;-8.310.400.390.625.000;6.011.075.210.571.280;139.773.344.993.591;-288.387.298.583.984;196.256.422.996.521;-15.220.024.108.886.700;-1.105.844.116.210.930;-306.323.027.610.779
513;1614446307;-7.434.685.516.357.420;-8.314.154.052.734.370;6.086.706.161.499.020;167.352.676.391.602;-400.230.216.979.980;236.354.708.671.570;-14.086.557.006.835.900;-1.174.501.323.699.950;-0.98976445198059
514;1614454640;-7.612.326.049.804.680;-8.316.878.509.521.480;6.166.781.234.741.210;242.973.065.376.282;-435.595.655.441.284;277.622.556.686.401;-11.854.228.210.449.200;-1.195.812.988.281.250;-0.05960507318377
515;1614462973;-7.762.928.771.972.650;-8.318.485.260.009.760;6.244.874.954.223.630;339.845.681.190.491;-348.008.704.185.486;177.109.229.564.667;-8.846.656.036.376.950;-1.132.456.779.479.980;0.85494506359100
516;1614471306;-7.874.613.952.636.710;-8.318.540.191.650.390;6.312.698.745.727.530;434.404.325.485.229;-362.797.284.126.282;142.855.715.751.648;-5.398.810.195.922.850;-952.008.056.640.625;209.968.137.741.089
517;1614479639;-7.943.988.800.048.820;-8.317.016.601.562.500;6.364.521.789.550.780;451.566.934.585.571;-440.496.397.018.433;117.279.982.566.833;-2.228.414.916.992.180;-695.417.833.328.247;339.591.121.673.584
518;1614487972;-7.980.278.015.136.710;-8.313.607.025.146.480;6.402.658.081.054.680;450.263.690.948.486;-342.273.139.953.613;127.189.087.867.737;110.772.597.789.764;-467.554.521.560.669;521.965.599.060.059
519;1614496305;-8.006.866.455.078.120;-8.307.196.807.861.320;6.438.231.658.935.540;500.091.409.683.228;-296.755.671.501.160;114.245.462.417.603;969.620.704.650.879;-374.749.135.971.069;866.018.772.125.244
520;1614504638;-8.030.016.326.904.290;-8.297.719.573.974.600;6.468.043.518.066.400;515.994.310.379.028;-372.694.492.340.088;-0.63233137130737;694.022.941.589.355;-238.933.467.864.990;1.215.613.460.540.770
521;1614512971;-8.059.499.359.130.850;-8.285.065.460.205.070;6.491.107.940.673.820;508.150.434.494.019;-371.205.878.257.751;-0.36673682928085;-869.261.550.903.320;-0.89197754859924;1.575.429.630.279.540
522;1614521304;-8.119.602.966.308.590;-8.268.681.335.449.210;6.519.061.279.296.870;460.731.220.245.361;-308.562.707.901.001;-0.40447112917900;-3.962.628.555.297.850;-110.804.808.139.801;2.025.258.255.004.880
523;1614529637;-8.213.118.743.896.480;-8.248.284.149.169.920;6.551.818.084.716.790;418.984.937.667.847;-343.411.326.408.386;-106.058.311.462.402;-7.402.264.404.296.870;-151.729.297.637.939;2.514.900.016.784.660
524;1614537970;-8.334.582.519.531.250;-8.223.921.203.613.280;6.586.412.811.279.290;393.202.471.733.093;-365.965.414.047.241;-0.51740276813507;-10.539.924.621.582.000;-182.575.094.699.860;2.991.475.677.490.230
525;1614546303;-8.481.658.935.546.870;-8.195.218.658.447.260;6.627.319.335.937.500;399.612.283.706.665;-347.174.406.051.636;0.32982632517815;-12.865.802.001.953.100;-320.918.107.032.776;3.514.773.178.100.580
526;1614554636;-8.638.179.779.052.730;-8.162.552.642.822.260;6.673.957.061.767.570;489.392.137.527.466;-360.175.442.695.618;144.403.541.088.104;-13.321.945.190.429.600;-500.925.683.975.220;3.989.772.033.691.400
527;1614562969;-8.773.974.609.375.000;-8.126.599.121.093.750;6.718.157.196.044.920;599.419.069.290.161;-412.273.740.768.433;154.748.010.635.376;-11.128.314.208.984.300;-571.326.398.849.487;4.369.554.519.653.320
528;1614571302;-8.861.173.248.291.010;-8.088.087.463.378.900;6.751.134.490.966.790;658.358.335.494.995;-383.682.513.237.000;167.316.770.553.589;-6.633.061.218.261.710;-471.467.304.229.736;4.658.173.370.361.320
529;1614579635;-8.900.582.885.742.180;-8.046.907.043.457.030;6.776.074.218.750.000;671.364.355.087.280;-410.409.307.479.858;208.030.080.795.288;-1.853.972.053.527.830;-386.380.171.775.818;4.969.699.478.149.410
530;1614587968;-8.904.228.210.449.210;-8.003.352.355.957.030;6.794.913.482.666.010;618.436.527.252.197;-479.253.578.186.035;0.69993174076080;1.712.183.189.392.090;-299.209.642.410.278;5.253.819.656.372.070
531;1614596301;-8.893.011.474.609.370;-7.956.374.359.130.850;6.810.491.943.359.370;498.194.599.151.611;-339.235.019.683.838;-0.05545295774937;3.108.127.212.524.410;-235.732.531.547.546;5.662.862.014.770.500
532;1614604634;-8.900.592.803.955.070;-7.903.739.166.259.760;6.831.880.950.927.730;426.815.509.796.143;-240.882.921.218.872;-0.02125370316207;1.534.107.589.721.680;-368.003.678.321.838;6.343.270.492.553.710
533;1614612967;-8.944.273.376.464.840;-7.844.658.660.888.670;6.864.368.438.720.700;489.648.151.397.705;-305.908.298.492.432;0.02838264405727;-1.496.308.708.190.910;-669.787.168.502.808;7.118.881.225.585.930
534;1614621300;-9.014.416.503.906.250;-7.779.909.515.380.850;6.904.232.788.085.930;688.515.281.677.246;-309.132.337.570.190;0.38494643568993;-3.813.878.631.591.790;-961.099.815.368.652;7.793.790.435.791.010
535;1614629633;-9.085.165.405.273.430;-7.710.209.655.761.710;6.943.424.987.792.960;901.196.193.695.068;-244.095.921.516.418;0.29655349254608;-3.977.146.530.151.360;-1.099.226.665.496.820;8.374.407.958.984.370
536;1614637966;-9.136.560.058.593.750;-7.636.874.389.648.430;6.979.075.622.558.590;1.124.898.338.317.870;-357.913.708.686.829;161.686.789.989.471;-2.081.537.818.908.690;-1.156.557.750.701.900;8.800.447.845.458.980
537;1614646299;-9.159.059.906.005.850;-7.561.537.933.349.600;7.012.325.286.865.230;1.308.482.456.207.270;-437.516.927.719.116;203.008.961.677.551;1.093.363.189.697.260;-1.203.309.249.877.930;9.032.418.823.242.180
538;1614654632;-9.139.687.347.412.100;-7.484.660.339.355.460;7.038.842.773.437.500;1.422.945.404.052.730;-249.172.854.423.523;129.396.009.445.190;5.322.843.551.635.740;-1.059.840.583.801.270;9.221.848.297.119.140
539;1614662965;-9.077.134.704.589.840;-7.406.178.283.691.400;7.059.510.040.283.200;1.576.542.663.574.210;-289.031.386.375.427;230.632.138.252.258;9.817.796.325.683.590;-847.088.146.209.717;9.423.715.972.900.390
540;1614671298;-8.974.400.329.589.840;-7.328.338.623.046.870;7.077.369.689.941.400;1.862.225.914.001.460;-595.695.447.921.753;305.945.134.162.903;14.307.075.500.488.200;-649.431.037.902.832;9.359.116.363.525.390
541;1614679631;-8.825.212.097.167.960;-7.254.168.701.171.870;7.090.843.963.623.040;2.287.385.368.347.160;-602.830.505.371.094;261.937.403.678.894;19.370.637.512.207.000;-324.045.896.530.151;8.928.314.208.984.370
542;1614687964;-8.618.526.458.740.230;-7.185.705.566.406.250;7.092.993.927.001.950;2.737.431.716.918.940;-613.072.872.161.865;0.94086194038391;24.970.518.493.652.300;315.361.189.842.224;8.230.335.235.595.700
543;1614696297;-8.348.466.491.699.210;-7.125.235.748.291.010;7.075.149.536.132.810;2.933.141.899.108.880;-866.275.596.618.652;-121.393.561.363.220;30.298.840.332.031.200;1.323.595.714.569.090;7.186.883.544.921.870
544;1614704630;-8.036.112.213.134.760;-7.072.823.333.740.230;7.037.057.495.117.180;2.771.759.033.203.120;-799.077.081.680.298;-113.986.337.184.906;33.083.489.990.234.300;2.353.730.392.456.050;6.038.038.253.784.180
545;1614712963;-7.731.974.029.541.010;-7.025.471.496.582.030;6.989.717.102.050.780;2.429.519.081.115.720;-506.309.127.807.617;-0.71861916780472;31.064.852.905.273.400;2.956.786.537.170.410;5.228.638.458.251.950
546;1614721296;-7.478.464.508.056.640;-6.980.632.019.042.960;6.942.233.276.367.180;2.072.285.842.895.500;-492.794.942.855.835;-164.757.740.497.589;24.988.331.604.003.900;3.181.556.510.925.290;4.772.520.828.247.070
547;1614729629;-7.295.453.643.798.820;-6.937.365.722.656.250;6.896.923.065.185.540;1.764.834.785.461.420;-442.131.805.419.922;-170.560.145.378.113;16.787.895.202.636.700;3.259.552.383.422.850;4.480.665.206.909.180
548;1614737962;-7.191.883.087.158.200;-6.894.948.577.880.850;6.857.217.407.226.560;1.570.900.440.216.060;-323.430.657.386.780;-0.76265275478363;7.897.709.655.761.710;3.147.532.844.543.450;4.362.133.407.592.770
549;1614746295;-7.157.406.616.210.930;-6.853.261.566.162.100;6.823.100.280.761.710;1.459.736.347.198.480;-390.155.267.715.454;-0.35629895329475;243.484.354.019.165;2.972.047.233.581.540;4.305.983.352.661.130
550;1614754628;-7.167.499.542.236.320;-6.813.575.744.628.900;6.791.025.543.212.890;1.408.707.237.243.650;-556.001.377.105.713;0.71389567852020;-4.866.393.280.029.290;2.845.635.414.123.530;4.091.493.988.037.100
551;1614762961;-7.200.600.433.349.600;-6.777.043.914.794.920;6.758.914.184.570.310;1.349.521.255.493.160;-543.258.094.787.598;141.050.958.633.423;-7.622.174.835.205.070;2.736.247.253.417.960;3.734.960.556.030.270
552;1614771294;-7.241.217.041.015.620;-6.743.678.283.691.400;6.726.231.384.277.340;1.291.135.883.331.290;-515.759.229.660.034;171.088.838.577.271;-8.578.738.403.320.310;2.641.729.736.328.120;3.376.006.317.138.670
553;1614779627;-7.280.873.107.910.150;-6.713.306.427.001.950;6.692.781.066.894.530;1.221.145.153.045.650;-563.102.626.800.537;184.543.025.493.622;-8.539.573.669.433.590;2.564.079.093.933.100;3.034.964.561.462.400
554;1614787960;-7.313.430.786.132.810;-6.685.317.993.164.060;6.658.226.013.183.590;1.110.481.262.207.030;-470.856.046.676.636;138.533.568.382.263;-7.802.175.140.380.850;2.528.652.381.896.970;2.756.631.088.256.830
555;1614796293;-7.335.913.848.876.950;-6.658.452.606.201.170;6.623.571.014.404.290;1.015.070.343.017.570;-371.958.899.497.986;204.715.991.020.203;-6.596.185.302.734.370;2.498.785.018.920.890;2.633.078.575.134.270
556;1614804626;-7.346.343.231.201.170;-6.632.782.745.361.320;6.589.781.951.904.290;909.140.872.955.322;-440.745.162.963.867;218.325.495.719.910;-5.047.166.824.340.820;2.426.884.651.184.080;2.510.090.446.472.160
557;1614812959;-7.341.812.133.789.060;-6.608.558.654.785.150;6.557.102.203.369.140;785.611.963.272.095;-463.623.142.242.432;233.542.323.112.488;-3.122.858.428.955.070;2.340.727.806.091.300;2.355.340.957.641.600
558;1614821292;-7.326.026.916.503.900;-6.585.839.080.810.540;6.527.111.053.466.790;678.213.453.292.847;-392.951.202.392.578;270.455.312.728.882;-1.472.694.683.074.950;2.178.269.195.556.640;2.214.725.875.854.490
559;1614829625;-7.303.646.087.646.480;-6.564.151.000.976.560;6.500.901.031.494.140;574.483.251.571.655;-376.203.250.885.010;226.919.388.771.057;-260.044.860.839.844;1.986.303.329.467.770;2.136.536.216.735.840
560;1614837958;-7.279.354.095.458.980;-6.543.492.889.404.290;6.478.360.748.291.010;487.508.630.752.563;-391.190.862.655.640;221.723.699.569.702;373.596.620.559.692;1.792.259.788.513.180;2.062.964.057.922.360
561;1614846291;-7.261.325.836.181.640;-6.523.698.425.292.960;6.460.727.691.650.390;421.607.637.405.396;-328.657.460.212.708;205.310.678.482.056;162.466.049.194.336;1.544.879.722.595.210;2.025.175.094.604.490
562;1614854624;-7.255.168.914.794.920;-6.503.884.124.755.850;6.448.425.292.968.750;387.701.416.015.625;-232.520.723.342.896;156.309.318.542.480;-679.083.728.790.283;1.299.323.654.174.800;2.102.939.987.182.610
563;1614862957;-7.262.667.846.679.680;-6.483.685.302.734.370;6.440.777.587.890.620;387.822.246.551.514;-231.962.847.709.656;143.368.864.059.448;-1.809.245.109.558.100;1.091.737.174.987.790;2.216.763.877.868.650
564;1614871290;-7.281.998.443.603.510;-6.463.159.942.626.950;6.436.658.477.783.200;407.364.988.327.026;-250.614.738.464.355;132.306.218.147.278;-2.844.941.902.160.640;928.245.639.801.025;2.309.308.242.797.850
565;1614879623;-7.305.953.216.552.730;-6.442.215.728.759.760;6.433.367.919.921.870;466.539.669.036.865;-203.402.090.072.632;0.87935072183609;-3.309.260.940.551.750;895.254.802.703.857;2.372.924.423.217.770
566;1614887956;-7.326.218.414.306.640;-6.420.671.081.542.960;6.429.346.466.064.450;549.478.054.046.631;-166.109.848.022.461;0.98186355829239;-2.945.035.552.978.510;944.661.998.748.779;2.433.914.184.570.310
567;1614896289;-7.336.051.177.978.510;-6.399.039.077.758.780;6.423.305.511.474.600;600.340.843.200.684;-214.514.183.998.108;110.431.396.961.212;-1.910.338.020.324.700;1.044.346.904.754.630;2.415.754.699.707.030
568;1614904622;-7.329.824.066.162.100;-6.378.049.087.524.410;6.413.730.621.337.890;623.223.400.115.967;-259.816.241.264.343;108.974.385.261.536;-362.745.118.141.174;1.202.258.491.516.110;2.288.340.950.012.200
569;1614912955;-7.305.868.530.273.430;-6.358.164.978.027.340;6.400.411.224.365.230;650.545.263.290.405;-243.664.956.092.834;115.547.823.905.945;1.363.880.825.042.720;1.364.467.334.747.310;2.098.930.358.886.710
570;1614921288;-7.265.528.106.689.450;-6.339.215.469.360.350;6.383.406.829.833.980;660.305.690.765.381;-179.927.003.383.636;110.083.901.882.172;2.937.340.354.919.430;1.535.796.928.405.760;1.924.519.157.409.660
571;1614929621;-7.212.841.033.935.540;-6.321.407.699.584.960;6.363.186.645.507.810;668.369.054.794.312;-218.279.147.148.132;0.78886473178864;4.076.697.921.752.930;1.681.016.731.262.200;1.727.071.189.880.370
572;1614937954;-7.152.140.045.166.010;-6.304.911.422.729.490;6.340.528.106.689.450;645.868.968.963.623;-225.945.615.768.433;0.78451794385910;4.779.371.643.066.400;1.780.751.991.271.970;1.517.452.430.725.090
573;1614946287;-7.089.897.918.701.170;-6.289.403.533.935.540;6.317.006.301.879.880;626.476.335.525.513;-129.982.912.540.436;113.950.634.002.686;4.877.016.067.504.880;1.809.324.836.730.950;1.368.653.774.261.470
574;1614954620;-7.028.545.379.638.670;-6.274.644.851.684.570;6.293.333.053.588.860;637.023.830.413.818;-143.000.018.596.649;0.80655109882355;4.757.364.273.071.280;1.807.257.652.282.710;1.259.695.816.040.030
575;1614962953;-6.966.404.724.121.090;-6.260.918.807.983.390;6.268.515.396.118.160;653.582.143.783.569;-174.471.592.903.137;0.79384410381317;4.733.232.498.168.940;1.843.957.710.266.110;1.099.352.741.241.450
576;1614971286;-6.906.052.398.681.640;-6.248.345.184.326.170;6.243.752.670.288.080;651.422.023.773.193;-128.998.017.311.096;132.222.354.412.079;4.527.717.590.332.030;1.808.947.372.436.520;949.204.063.415.527
577;1614979619;-6.848.675.537.109.370;-6.236.924.362.182.610;6.219.309.997.558.590;695.155.477.523.804;-166.810.011.863.708;0.74707973003387;4.207.228.851.318.350;1.757.486.724.853.510;806.133.842.468.262
578;1614987952;-6.790.103.149.414.060;-6.226.218.032.836.910;6.194.449.615.478.510;761.516.523.361.206;-0.44187346100807;0.61632537841797;4.308.942.031.860.350;1.759.321.403.503.410;698.292.922.973.633
579;1614996285;-6.730.822.753.906.250;-6.214.891.052.246.090;6.171.107.482.910.150;810.352.325.439.453;121.826.791.763.306;135.344.409.942.627;4.557.637.023.925.780;1.721.039.390.563.960;778.999.567.031.860
580;1615004618;-6.663.837.432.861.320;-6.202.608.871.459.960;6.148.716.735.839.840;872.272.872.924.805;-0.37894085049629;0.72966945171356;5.585.662.078.857.420;1.729.337.501.525.870;885.128.116.607.666
581;1615012951;-6.579.441.070.556.640;-6.189.627.456.665.030;6.126.142.120.361.320;814.309.978.485.107;103.015.184.402.466;166.351.580.619.812;7.659.011.840.820.310;1.789.128.494.262.690;932.184.028.625.488
582;1615021284;-6.476.361.846.923.820;-6.174.923.324.584.960;6.105.309.295.654.290;669.203.662.872.314;256.913.566.589.355;191.894.900.798.798;10.087.081.909.179.600;1.804.490.661.621.090;1.130.187.320.709.220
583;1615029617;-6.352.339.553.833.000;-6.159.473.419.189.450;6.083.224.105.834.960;530.398.225.784.302;-138.787.460.327.148;0.17866942286491;12.472.367.095.947.200;1.935.954.093.933.100;1.139.865.112.304.680
584;1615037950;-6.216.293.716.430.660;-6.144.593.811.035.150;6.061.034.774.780.270;445.043.134.689.331;-0.88000309467316;230.687.737.464.905;13.906.935.119.628.900;1.939.725.685.119.620;1.030.319.976.806.640
