DeviceTag:;A4;;;;;;;;;
FirmwareVersion:;3.0.0;;;;;;;;;
AppVersion:;2023.6.0;;;;;;;;;
StartTime: ;2026-05-28_17:09:58_000 CEST;;;;;;;;;
© Movella Technologies B. V. 2005-2026;;;;;;;;;;
;;;;;;;;;;
PacketCounter;SampleTimeFine;Euler_X;Euler_Y;Euler_Z;ax;ay;az;Gyr_X;Gyr_Y;Gyr_Z
0;944923089;-6.121.062.469.482.420;-5.890.497.970.581.050;6.620.061.492.919.920;0.00000000000000;0.00000000000000;0.00000000000000;0.00000000000000;0.00000000000000;0.00000000000000
1;944931422;-6.118.685.531.616.210;-5.889.888.000.488.280;6.618.732.452.392.570;845.702.838.897.705;-451.042.556.762.695;232.123.351.097.107;0.41249161958694;108.481.395.244.598;0.54837512969971
2;944939755;-6.115.713.882.446.280;-5.889.258.956.909.180;6.616.790.008.544.920;845.766.448.974.609;-454.088.926.315.308;233.894.395.828.247;0.74683421850204;135.360.991.954.803;0.32975763082504
3;944948088;-6.112.363.815.307.610;-5.888.897.705.078.120;6.614.378.356.933.590;846.032.524.108.887;-456.918.621.063.232;245.049.953.460.693;0.72247511148453;139.835.798.740.387;0.03465605899692
4;944956421;-6.108.979.415.893.550;-5.888.521.957.397.460;6.611.875.915.527.340;844.885.921.478.271;-452.961.635.589.600;243.682.336.807.251;0.66658484935760;151.290.488.243.103;-0.11020524054766
5;944964754;-6.104.812.240.600.580;-5.888.195.419.311.520;6.608.840.179.443.350;847.193.431.854.248;-451.945.352.554.321;230.786.657.333.374;103.591.644.763.947;173.549.234.867.096;-0.20062348246574
6;944973087;-6.100.298.690.795.890;-5.888.014.602.661.130;6.605.595.397.949.210;844.843.864.440.918;-454.648.828.506.470;244.317.173.957.825;126.063.013.076.782;179.934.871.196.747;-0.53632366657257
7;944981420;-6.095.545.196.533.200;-5.887.963.104.248.040;6.602.302.551.269.530;845.774.364.471.436;-444.870.376.586.914;260.257.887.840.271;138.122.200.965.881;175.944.173.336.029;-0.60553330183029
8;944989753;-6.090.971.374.511.710;-5.887.901.687.622.070;6.599.085.998.535.150;845.716.667.175.293;-450.555.992.126.465;238.538.384.437.561;136.050.009.727.478;171.566.677.093.506;-0.65279150009155
9;944998086;-6.085.908.889.770.500;-5.888.042.449.951.170;6.595.298.767.089.840;845.864.009.857.178;-449.842.023.849.487;239.095.807.075.500;130.274.009.704.590;188.372.218.608.856;-0.93839043378830
10;945006419;-6.081.011.581.420.890;-5.888.094.329.833.980;6.591.538.238.525.390;845.899.868.011.475;-447.387.027.740.479;253.196.406.364.441;119.095.945.358.276;194.132.852.554.321;-0.94300079345703
11;945014752;-6.076.203.918.457.030;-5.888.393.020.629.880;6.587.821.197.509.760;845.146.369.934.082;-440.015.649.795.532;250.310.969.352.722;0.97054898738861;179.919.517.040.253;-111.113.274.097.443
12;945023085;-6.071.601.104.736.320;-5.888.707.733.154.290;6.583.966.064.453.120;844.585.132.598.877;-447.443.675.994.873;244.843.244.552.612;0.74063551425934;183.387.660.980.225;-124.791.264.533.997
13;945031418;-6.066.816.711.425.780;-5.889.136.886.596.680;6.579.949.188.232.420;847.208.690.643.311;-438.514.041.900.635;249.461.388.587.952;0.75269985198975;182.580.816.745.758;-131.151.270.866.394
14;945039751;-6.062.479.400.634.760;-5.889.461.135.864.250;6.576.213.073.730.460;842.233.467.102.051;-450.789.928.436.279;250.874.042.510.986;0.54194599390030;176.474.404.335.022;-122.199.130.058.289
15;945048084;-6.058.327.865.600.580;-5.889.864.730.834.960;6.571.957.397.460.930;852.011.775.970.459;-434.649.801.254.272;247.591.114.044.189;-0.25080177187920;196.315.193.176.270;-135.603.046.417.236
16;945056417;-6.054.951.095.581.050;-5.890.291.595.458.980;6.567.794.036.865.230;844.249.248.504.639;-446.166.133.880.615;231.431.174.278.259;-105.147.707.462.311;193.123.638.629.913;-146.460.914.611.816
17;945064750;-6.051.846.313.476.560;-5.890.928.268.432.610;6.563.288.116.455.070;847.476.768.493.652;-453.107.881.546.021;242.194.080.352.783;-189.421.105.384.827;202.675.199.508.667;-172.190.403.938.293
18;945073083;-6.048.667.907.714.840;-5.891.382.980.346.680;6.558.890.533.447.260;844.496.154.785.156;-428.859.949.111.938;272.170.305.252.075;-152.851.653.099.060;203.612.661.361.694;-156.647.682.189.941
19;945081416;-6.045.541.381.835.930;-5.891.890.716.552.730;6.554.662.322.998.040;848.474.597.930.908;-429.468.297.958.374;269.294.404.983.521;-152.987.396.717.072;192.296.278.476.715;-147.918.343.544.006
20;945089749;-6.042.102.050.781.250;-5.892.665.863.037.100;6.550.516.510.009.760;840.501.689.910.889;-476.683.187.484.741;241.873.526.573.181;-0.95752412080765;170.864.892.005.920;-182.730.674.743.652
21;945098082;-6.038.446.044.921.870;-5.893.400.192.260.740;6.546.607.208.251.950;855.927.276.611.328;-404.006.242.752.075;272.969.698.905.945;-0.51557606458664;158.810.806.274.414;-161.698.806.285.858
22;945106415;-6.034.945.678.710.930;-5.894.143.295.288.080;6.543.170.928.955.070;835.061.931.610.107;-427.740.669.250.488;273.788.928.985.596;-0.15541437268257;134.474.742.412.567;-157.439.172.267.914
23;945114748;-6.031.129.455.566.400;-5.894.921.112.060.540;6.539.753.723.144.530;849.886.226.654.053;-455.377.292.633.057;250.054.645.538.330;0.27599340677261;124.610.698.223.114;-148.720.097.541.809
24;945123081;-6.026.398.086.547.850;-5.895.545.578.002.930;6.536.713.409.423.820;847.310.829.162.598;-417.108.011.245.728;248.132.634.162.903;172.545.182.704.926;119.989.895.820.618;-133.272.159.099.579
25;945131414;-6.020.449.066.162.100;-5.895.973.587.036.130;6.533.386.993.408.200;846.222.972.869.873;-424.166.059.494.019;257.593.011.856.079;284.189.963.340.759;144.430.994.987.488;-111.868.906.021.118
26;945139747;-6.014.915.847.778.320;-5.896.386.337.280.270;6.530.193.328.857.420;847.275.352.478.027;-448.899.936.676.025;243.147.134.780.884;253.232.574.462.891;140.281.498.432.159;-116.456.401.348.114
27;945148080;-6.009.609.603.881.830;-5.896.811.676.025.390;6.526.580.810.546.870;845.411.396.026.611;-443.154.907.226.562;237.184.739.112.854;167.657.971.382.141;164.238.476.753.235;-122.824.096.679.688
28;945156413;-6.006.321.716.308.590;-5.897.048.950.195.310;6.523.027.038.574.210;848.456.573.486.328;-408.222.389.221.191;258.878.231.048.584;-0.53284007310867;170.060.586.929.321;-109.397.113.323.212
29;945164746;-6.004.420.852.661.130;-5.897.512.435.913.080;6.519.821.929.931.640;840.681.076.049.805;-445.983.552.932.739;271.399.021.148.682;-189.469.766.616.821;135.437.822.341.919;-112.084.043.025.970
30;945173079;-6.002.402.496.337.890;-5.897.754.287.719.720;6.516.863.250.732.420;853.146.648.406.982;-426.434.898.376.465;235.076.308.250.427;-144.404.089.450.836;137.635.529.041.290;-0.91597777605057
31;945181412;-5.997.464.752.197.260;-5.897.819.137.573.240;6.513.552.093.505.850;839.507.961.273.193;-418.504.524.230.957;255.943.202.972.412;171.208.119.392.395;161.123.776.435.852;-0.71675032377243
32;945189745;-5.992.256.927.490.230;-5.897.693.634.033.200;6.510.776.519.775.390;848.006.916.046.143;-421.791.124.343.872;282.711.791.992.188;257.200.264.930.725;149.776.685.237.885;-0.47810253500938
33;945198078;-5.988.214.874.267.570;-5.897.592.544.555.660;6.508.208.465.576.170;844.505.023.956.299;-422.026.824.951.172;243.885.707.855.225;134.246.766.567.230;133.908.653.259.277;-0.33497011661530
34;945206411;-5.985.057.067.871.090;-5.897.150.039.672.850;6.505.648.803.710.930;844.832.324.981.689;-412.833.499.908.447;227.054.834.365.845;0.33249837160110;157.289.326.190.948;-0.08674260228872
35;945214744;-5.982.086.181.640.620;-5.896.599.960.327.140;6.503.273.010.253.900;845.758.438.110.352;-409.558.200.836.182;276.045.346.260.071;0.26884698867798;150.094.270.706.177;0.19351553916931
36;945223077;-5.979.608.154.296.870;-5.895.803.833.007.810;6.501.821.136.474.600;848.287.963.867.188;-425.674.247.741.699;285.490.751.266.479;0.65587812662125;119.439.172.744.751;0.62749749422073
37;945231410;-5.976.702.499.389.640;-5.894.880.294.799.800;6.500.495.910.644.530;839.582.347.869.873;-425.050.687.789.917;237.882.184.982.300;121.022.140.979.767;119.900.238.513.947;0.87923431396484
38;945239743;-5.973.851.013.183.590;-5.893.958.663.940.430;6.499.458.312.988.280;851.619.434.356.689;-411.697.196.960.449;274.729.204.177.856;153.247.392.177.582;104.746.842.384.338;0.87846577167511
39;945248076;-5.971.511.459.350.580;-5.892.900.085.449.210;6.498.786.163.330.070;846.916.484.832.764;-424.516.630.172.729;282.398.200.035.095;124.843.776.226.044;0.90779405832291;125.105.047.225.952
40;945256409;-5.968.616.104.125.970;-5.891.666.030.883.780;6.498.026.275.634.760;847.649.002.075.195;-446.896.505.355.835;213.838.458.061.218;186.899.399.757.385;109.032.118.320.465;128.934.371.471.405
41;945264742;-5.964.962.768.554.680;-5.890.439.224.243.160;6.496.772.766.113.280;847.991.847.991.943;-433.044.052.124.023;257.086.110.115.051;236.229.872.703.552;125.594.294.071.198;126.700.818.538.666
42;945273075;-5.962.183.380.126.950;-5.889.139.938.354.490;6.496.333.312.988.280;845.766.162.872.314;-416.522.312.164.307;313.567.352.294.922;205.825.757.980.347;0.96014958620071;145.596.432.685.852
43;945281408;-5.960.167.312.622.070;-5.887.981.796.264.640;6.496.176.910.400.390;844.680.881.500.244;-439.353.847.503.662;255.320.239.067.078;145.217.335.224.152;0.66627746820450;152.179.288.864.136
44;945289741;-5.957.836.914.062.500;-5.886.749.649.047.850;6.495.767.974.853.510;846.252.536.773.682;-445.515.012.741.089;206.962.466.239.929;155.381.059.646.606;0.90205645561218;139.766.645.431.519
45;945298074;-5.955.990.600.585.930;-5.885.526.275.634.760;6.495.349.884.033.200;845.847.320.556.641;-424.535.083.770.752;279.093.503.952.026;0.93842881917953;0.86801511049271;148.972.392.082.214
46;945306407;-5.955.451.583.862.300;-5.884.281.921.386.710;6.495.343.017.578.120;844.529.247.283.936;-430.301.713.943.481;295.277.857.780.457;-0.18651004135609;0.69432502985001;153.511.226.177.216
47;945314740;-5.955.644.989.013.670;-5.883.299.636.840.820;6.495.404.815.673.820;844.211.959.838.867;-447.193.527.221.680;240.022.134.780.884;-103.674.900.531.769;0.47458058595657;139.336.323.738.098
48;945323073;-5.956.116.867.065.430;-5.882.260.131.835.930;6.495.500.946.044.920;845.312.881.469.727;-439.561.128.616.333;251.701.998.710.632;-129.243.016.242.981;0.51492297649384;135.591.506.958.008
49;945331406;-5.957.238.388.061.520;-5.881.420.516.967.770;6.495.765.686.035.150;845.381.736.755.371;-435.736.751.556.396;297.188.925.743.103;-180.261.456.966.400;0.21116374433041;134.175.050.258.636
50;945339739;-5.959.147.644.042.960;-5.880.670.166.015.620;6.496.455.383.300.780;844.241.523.742.676;-446.221.160.888.672;279.255.962.371.826;-240.623.974.800.110;0.02190017141402;124.167.561.531.067
51;945348072;-5.961.195.373.535.150;-5.880.163.955.688.470;6.497.152.709.960.930;845.410.728.454.590;-439.987.945.556.641;254.633.474.349.976;-256.153.893.470.764;-0.17792928218842;110.246.229.171.753
52;945356405;-5.963.544.845.581.050;-5.879.646.682.739.250;6.498.239.898.681.640;843.636.894.226.074;-431.918.430.328.369;270.663.332.939.148;-252.629.351.615.906;-0.33384311199188;112.625.789.642.334
53;945364738;-5.966.071.319.580.070;-5.879.153.823.852.530;6.499.642.944.335.930;842.405.986.785.889;-440.209.436.416.626;280.766.463.279.724;-252.478.265.762.329;-0.50978732109070;127.751.004.695.892
54;945373071;-5.968.855.285.644.530;-5.878.767.776.489.250;6.501.280.975.341.790;845.501.327.514.648;-441.887.998.580.933;259.805.464.744.568;-248.205.780.982.971;-0.71152502298355;116.583.192.348.480
55;945381404;-5.971.343.994.140.620;-5.878.562.927.246.090;6.502.663.421.630.850;846.502.876.281.738;-438.864.231.109.619;255.232.262.611.389;-245.352.339.744.568;-0.70153540372849;0.99011820554733
56;945389737;-5.974.552.917.480.460;-5.878.394.699.096.680;6.504.153.442.382.810;844.839.382.171.631;-448.127.365.112.305;262.482.833.862.305;-314.398.074.150.085;-0.76288157701492;0.88871145248413
57;945398070;-5.977.743.530.273.430;-5.878.332.138.061.520;6.505.305.480.957.030;847.126.197.814.941;-452.321.767.807.007;250.598.764.419.556;-346.433.830.261.230;-0.69648957252502;0.79001992940903
58;945406403;-5.980.537.033.081.050;-5.878.324.508.666.990;6.506.333.160.400.390;844.406.032.562.256;-442.094.802.856.445;252.051.234.245.300;-312.238.836.288.452;-0.61250048875809;0.57790845632553
59;945414736;-5.983.161.163.330.070;-5.878.443.527.221.680;6.507.395.172.119.140;846.237.182.617.188;-441.195.487.976.074;267.472.052.574.158;-294.073.200.225.830;-0.72187322378159;0.54793971776962
60;945423069;-5.986.199.188.232.420;-5.878.746.795.654.290;6.508.650.970.458.980;844.698.143.005.371;-448.156.929.016.113;267.663.669.586.182;-318.206.930.160.522;-0.92379015684128;0.32911732792854
61;945431402;-5.989.380.645.751.950;-5.879.154.968.261.710;6.509.690.856.933.590;846.375.846.862.793;-444.420.862.197.876;257.232.785.224.915;-341.958.999.633.789;-0.99340975284576;0.29914864897728
62;945439735;-5.993.220.520.019.530;-5.879.695.892.333.980;6.511.294.555.664.060;843.413.543.701.172;-440.818.071.365.356;262.733.244.895.935;-378.528.404.235.840;-125.283.050.537.109;0.19054427742958
63;945448068;-5.997.464.752.197.260;-5.880.518.341.064.450;6.512.849.426.269.530;845.626.640.319.824;-443.726.730.346.680;275.980.544.090.271;-439.544.153.213.501;-140.323.746.204.376;-0.03807555884123
64;945456401;-6.002.157.974.243.160;-5.881.489.562.988.280;6.514.589.691.162.100;844.283.008.575.439;-458.768.558.502.197;265.537.667.274.475;-467.023.086.547.852;-158.445.823.192.596;-0.21952681243420
65;945464734;-6.006.295.776.367.180;-5.882.632.446.289.060;6.516.117.858.886.710;845.974.254.608.154;-454.128.456.115.723;256.860.136.985.779;-426.462.936.401.367;-159.529.316.425.323;-0.36796128749847
66;945473067;-6.009.746.932.983.390;-5.883.942.413.330.070;6.517.629.241.943.350;847.987.651.824.951;-448.883.581.161.499;258.113.479.614.258;-341.569.662.094.116;-166.078.853.607.178;-0.64623433351517
67;945481400;-6.012.641.525.268.550;-5.885.577.392.578.120;6.518.997.955.322.260;845.141.124.725.342;-457.376.432.418.823;269.014.143.943.787;-296.055.722.236.633;-178.445.410.728.455;-0.95516759157181
68;945489733;-6.015.909.957.885.740;-5.887.260.437.011.710;6.520.462.799.072.260;846.930.789.947.510;-454.672.670.364.380;255.796.551.704.407;-324.108.409.881.592;-185.960.614.681.244;-105.024.755.001.068
69;945498066;-6.019.062.042.236.320;-5.889.177.703.857.420;6.521.382.904.052.730;845.135.307.312.012;-456.414.365.768.433;233.178.138.732.910;-369.970.774.650.574;-172.513.163.089.752;-137.841.725.349.426
70;945506399;-6.022.705.841.064.450;-5.891.246.414.184.570;6.522.000.885.009.760;844.884.490.966.797;-452.371.692.657.471;252.728.104.591.370;-455.980.730.056.763;-163.156.259.059.906;-171.283.662.319.183
71;945514732;-6.026.840.972.900.390;-5.893.605.804.443.350;6.522.489.929.199.210;848.720.264.434.814;-453.717.756.271.362;264.770.698.547.363;-537.067.747.116.089;-173.473.703.861.237;-198.260.581.493.378
72;945523065;-6.031.283.187.866.210;-5.895.959.472.656.250;6.523.001.861.572.260;845.324.325.561.523;-448.057.460.784.912;247.881.340.980.530;-562.963.771.820.068;-173.809.242.248.535;-204.484.868.049.622
73;945531398;-6.034.804.916.381.830;-5.898.508.453.369.140;6.523.522.949.218.750;850.802.040.100.098;-445.569.181.442.261;242.631.840.705.872;-496.161.842.346.191;-168.133.115.768.433;-227.709.269.523.621
74;945539731;-6.037.582.778.930.660;-5.901.152.420.043.940;6.523.510.742.187.500;847.862.625.122.070;-451.265.096.664.429;255.000.472.068.787;-416.926.765.441.895;-162.787.437.438.965;-251.171.898.841.858
75;945548064;-6.039.897.537.231.440;-5.903.959.655.761.710;6.523.241.424.560.540;848.563.480.377.197;-452.793.598.175.049;252.269.005.775.452;-395.805.239.677.429;-158.817.219.734.192;-268.113.112.449.646
76;945556397;-6.041.947.174.072.260;-5.906.826.782.226.560;6.522.667.694.091.790;847.694.110.870.361;-452.165.222.167.969;249.763.512.611.389;-387.444.758.415.222;-145.541.369.915.009;-292.190.551.757.812
77;945564730;-6.043.880.081.176.750;-5.909.868.240.356.440;6.522.039.794.921.870;849.799.442.291.260;-453.420.829.772.949;248.000.407.218.933;-398.253.941.535.950;-147.534.132.003.784;-307.041.645.050.049
78;945573063;-6.046.205.902.099.600;-5.913.043.212.890.620;6.521.244.812.011.710;849.538.993.835.449;-456.401.538.848.877;241.071.486.473.083;-443.360.614.776.611;-151.722.073.554.993;-330.852.651.596.069
79;945581396;-6.048.214.721.679.680;-5.916.544.342.041.010;6.520.053.863.525.390;847.096.157.073.975;-450.812.244.415.283;244.777.941.703.796;-459.848.594.665.527;-147.285.723.686.218;-370.828.866.958.618
80;945589729;-6.050.698.852.539.060;-5.920.094.680.786.130;6.518.932.342.529.290;849.320.793.151.855;-445.273.494.720.459;242.693.138.122.559;-496.149.015.426.636;-156.263.482.570.648;-379.734.873.771.667
81;945598062;-6.052.983.474.731.440;-5.923.842.239.379.880;6.517.198.944.091.790;843.540.191.650.391;-444.757.604.598.999;241.130.399.703.979;-539.969.825.744.629;-137.260.270.118.713;-410.505.247.116.089
82;945606395;-6.054.807.662.963.860;-5.927.469.635.009.760;6.515.480.804.443.350;851.858.329.772.949;-430.226.755.142.212;229.799.675.941.467;-478.418.874.740.601;-128.828.084.468.842;-405.889.558.792.114
83;945614728;-6.055.678.558.349.600;-5.931.432.723.999.020;6.512.981.414.794.920;868.570.232.391.357;-507.550.334.930.420;249.941.372.871.399;-432.034.063.339.233;-117.724.311.351.776;-450.635.099.411.011
84;945623061;-6.056.606.292.724.600;-5.935.819.625.854.490;6.510.352.325.439.450;844.444.370.269.775;-467.105.531.692.505;267.564.654.350.281;-465.214.681.625.366;-124.909.090.995.789;-512.644.529.342.651
85;945631394;-6.058.078.765.869.140;-5.940.361.785.888.670;6.507.605.743.408.200;850.013.923.645.020;-399.148.964.881.897;244.432.067.871.094;-535.999.679.565.430;-134.201.967.716.217;-524.504.041.671.753
86;945639727;-6.059.807.968.139.640;-5.944.919.586.181.640;6.504.848.480.224.600;849.247.646.331.787;-437.110.853.195.190;225.117.635.726.929;-574.815.559.387.207;-128.451.561.927.795;-534.104.251.861.572
87;945648060;-6.061.551.666.259.760;-5.949.657.058.715.820;6.501.306.152.343.750;854.234.790.802.002;-482.445.716.857.910;239.234.113.693.237;-630.595.541.000.366;-115.219.247.341.156;-558.803.939.819.336
88;945656393;-6.063.908.767.700.190;-5.954.551.315.307.610;6.497.976.684.570.310;853.264.617.919.922;-448.203.563.690.186;249.807.357.788.086;-709.610.414.505.005;-117.975.342.273.712;-586.331.701.278.687
89;945664726;-6.066.149.902.343.750;-5.959.699.249.267.570;6.494.268.798.828.120;849.987.602.233.887;-414.168.310.165.405;242.625.474.929.810;-737.883.424.758.911;-115.280.711.650.848;-615.954.542.160.034
90;945673059;-6.068.355.941.772.460;-5.964.803.695.678.710;6.490.408.325.195.310;847.951.602.935.791;-440.171.623.229.980;231.510.472.297.668;-746.704.912.185.669;-102.337.825.298.309;-623.951.196.670.532
91;945681392;-6.070.751.571.655.270;-5.970.068.359.375.000;6.486.560.821.533.200;853.833.770.751.953;-461.170.673.370.361;234.557.414.054.871;-800.161.838.531.494;-101.620.638.370.514;-638.325.977.325.439
92;945689725;-6.073.748.397.827.140;-5.975.423.049.926.750;6.482.374.572.753.900;850.677.967.071.533;-430.157.804.489.136;241.541.886.329.651;-875.944.232.940.674;-0.99843013286591;-659.183.645.248.413
93;945698058;-6.076.902.770.996.090;-5.980.915.451.049.800;6.478.027.343.750.000;847.776.126.861.572;-408.292.007.446.289;237.505.412.101.746;-919.465.351.104.736;-0.99799478054047;-670.497.512.817.383
94;945706391;-6.080.004.882.812.500;-5.986.246.871.948.240;6.473.911.285.400.390;853.188.037.872.314;-436.663.722.991.943;239.922.475.814.819;-881.704.902.648.926;-102.255.880.832.672;-654.716.587.066.650
95;945714724;-6.082.112.121.582.030;-5.991.998.672.485.350;6.469.599.151.611.320;861.538.887.023.926;-465.081.644.058.228;258.511.877.059.937;-788.428.020.477.295;-118.426.167.964.935;-696.083.641.052.246
96;945723057;-6.084.203.338.623.040;-5.997.724.533.081.050;6.465.493.011.474.600;860.267.257.690.430;-445.168.924.331.665;263.785.481.452.942;-759.839.963.912.964;-125.782.561.302.185;-694.815.635.681.152
97;945731390;-6.085.689.163.208.000;-6.003.499.984.741.210;6.461.432.647.705.070;852.024.173.736.572;-386.431.717.872.620;230.883.336.067.200;-679.493.188.858.032;-136.499.524.116.516;-690.742.874.145.508
98;945739723;-6.086.609.268.188.470;-6.009.044.265.747.070;6.457.580.566.406.250;850.142.478.942.871;-401.044.511.795.044;237.058.830.261.230;-593.321.847.915.649;-128.797.364.234.924;-668.330.574.035.645
99;945748056;-6.087.596.893.310.540;-6.014.590.072.631.830;6.453.984.832.763.670;857.221.412.658.691;-443.864.488.601.685;261.352.705.955.505;-581.636.524.200.439;-144.350.302.219.391;-653.097.724.914.551
100;945756389;-6.089.264.678.955.070;-6.020.270.156.860.350;6.450.489.044.189.450;863.840.484.619.141;-443.497.419.357.300;247.132.134.437.561;-646.412.420.272.827;-155.712.783.336.639;-672.236.728.668.213
101;945764722;-6.091.108.703.613.280;-6.025.881.195.068.350;6.447.066.497.802.730;859.984.779.357.910;-401.091.480.255.127;226.620.650.291.443;-683.983.373.641.968;-149.511.587.619.781;-658.358.907.699.585
102;945773055;-6.094.324.493.408.200;-6.031.266.784.667.960;6.443.996.429.443.350;852.633.285.522.461;-388.797.402.381.897;234.997.963.905.334;-788.474.035.263.062;-160.879.182.815.552;-628.287.744.522.095
103;945781388;-6.098.965.454.101.560;-6.036.598.587.036.130;6.441.229.248.046.870;856.185.340.881.348;-407.180.881.500.244;241.072.797.775.269;-944.070.339.202.881;-170.172.035.694.122;-608.877.325.057.983
104;945789721;-6.105.916.595.458.980;-6.041.890.335.083.000;6.438.850.402.832.030;861.352.920.532.227;-424.393.701.553.345;246.791.863.441.467;-1.164.724.159.240.720;-190.663.433.074.951;-599.105.501.174.927
105;945798054;-6.113.954.544.067.380;-6.047.239.685.058.590;6.436.340.332.031.250;866.993.904.113.770;-421.190.166.473.389;234.928.989.410.400;-1.319.470.024.108.880;-186.298.751.831.055;-601.753.997.802.734
106;945806387;-6.123.912.811.279.290;-6.052.583.694.458.000;6.434.434.509.277.340;869.310.855.865.479;-421.888.017.654.419;237.510.895.729.065;-1.476.531.505.584.710;-216.864.228.248.596;-591.305.971.145.630
107;945814720;-6.135.714.721.679.680;-6.058.232.879.638.670;6.432.909.393.310.540;876.264.286.041.260;-426.803.779.602.051;235.232.377.052.307;-1.678.809.928.894.040;-247.637.248.039.246;-608.872.318.267.822
108;945823053;-6.150.397.491.455.070;-6.063.957.977.294.920;6.431.601.715.087.890;872.933.387.756.348;-408.890.914.916.992;228.667.926.788.330;-1.981.168.365.478.510;-267.378.163.337.708;-615.414.285.659.790
109;945831386;-6.169.308.853.149.410;-6.069.921.493.530.270;6.430.638.122.558.590;880.232.048.034.668;-404.331.445.693.970;228.726.434.707.642;-2.442.593.955.993.650;-305.205.297.470.093;-621.131.420.135.498
110;945839719;-6.193.526.840.209.960;-6.075.834.274.291.990;6.430.596.923.828.120;892.151.832.580.566;-398.262.882.232.666;221.945.595.741.272;-2.992.715.072.631.830;-339.625.835.418.701;-601.641.798.019.409
111;945848052;-6.223.204.040.527.340;-6.081.986.999.511.710;6.431.094.360.351.560;901.360.988.616.943;-378.161.716.461.182;211.582.326.889.038;-3.594.102.478.027.340;-380.852.079.391.479;-605.340.623.855.591
112;945856385;-6.257.739.639.282.220;-6.088.084.411.621.090;6.432.315.063.476.560;910.448.837.280.273;-360.240.864.753.723;201.406.049.728.394;-4.098.915.100.097.650;-408.674.430.847.168;-590.612.602.233.887
113;945864718;-6.295.305.633.544.920;-6.094.545.745.849.600;6.434.588.623.046.870;917.125.988.006.592;-377.178.001.403.809;204.164.052.009.583;-4.421.051.406.860.350;-450.866.365.432.739;-612.602.615.356.445
114;945873051;-6.333.613.204.956.050;-6.101.728.439.331.050;6.436.581.420.898.430;918.919.849.395.752;-369.164.252.281.189;215.072.274.208.069;-4.470.426.177.978.510;-499.210.786.819.458;-691.771.316.528.320
115;945881384;-6.368.329.238.891.600;-6.109.489.440.917.960;6.438.216.400.146.480;929.681.205.749.512;-338.471.412.658.691;187.859.010.696.411;-4.104.496.383.666.990;-497.089.767.456.055;-766.421.270.370.483
116;945889717;-6.396.397.781.372.070;-6.117.589.569.091.790;6.438.858.032.226.560;944.556.140.899.658;-336.296.844.482.422;196.027.445.793.152;-3.383.442.687.988.280;-468.363.142.013.550;-830.971.431.732.178
117;945898050;-6.415.676.116.943.350;-6.126.265.335.083.000;6.437.852.478.027.340;948.814.296.722.412;-344.962.644.577.026;202.274.155.616.760;-2.451.930.427.551.270;-435.323.143.005.371;-920.352.077.484.131
118;945906383;-6.425.054.931.640.620;-6.135.043.334.960.930;6.436.008.453.369.140;935.522.651.672.363;-329.395.079.612.732;210.365.033.149.719;-1.402.217.102.050.780;-369.005.203.247.070;-969.641.304.016.113
119;945914716;-6.423.952.484.130.850;-6.144.342.803.955.070;6.433.014.678.955.070;922.885.894.775.391;-347.351.121.902.466;231.464.171.409.607;-279.672.908.782.959;-331.690.287.590.027;-1.054.754.638.671.870
120;945923049;-6.412.622.070.312.500;-6.154.143.142.700.190;6.429.279.327.392.570;921.244.621.276.855;-389.170.098.304.749;260.025.429.725.647;883.680.820.465.088;-326.206.278.800.964;-1.126.587.104.797.360
121;945931382;-6.388.164.520.263.670;-6.164.152.145.385.740;6.424.167.633.056.640;932.740.211.486.816;-395.245.456.695.557;242.341.351.509.094;2.301.120.376.586.910;-267.529.344.558.716;-1.180.103.683.471.680
122;945939715;-6.345.608.520.507.810;-6.173.812.866.210.930;6.416.163.635.253.900;951.298.809.051.514;-385.269.570.350.647;218.456.363.677.979;4.178.959.274.291.990;-112.412.095.069.885;-1.215.949.440.002.440
123;945948048;-6.285.668.182.373.040;-6.182.600.402.832.030;6.405.538.940.429.680;956.042.671.203.613;-396.948.647.499.084;247.614.860.534.668;5.989.001.464.843.750;0.53331571817398;-1.185.455.036.163.330
124;945956381;-6.212.278.366.088.860;-6.190.629.959.106.440;6.392.574.310.302.730;915.346.908.569.336;-401.848.840.713.501;169.100.177.288.055;7.352.722.167.968.750;198.959.553.241.730;-1.168.256.950.378.410
125;945964714;-6.133.025.741.577.140;-6.197.600.936.889.640;6.377.743.911.743.160;863.671.016.693.115;-345.228.028.297.424;179.320.836.067.200;7.854.861.450.195.310;335.343.456.268.311;-1.107.280.158.996.580
126;945973047;-6.065.287.399.291.990;-6.203.380.203.247.070;6.365.324.020.385.740;808.000.469.207.764;-281.030.845.642.090;200.245.594.978.333;6.730.690.002.441.400;269.019.746.780.396;-920.772.647.857.666
127;945981380;-6.018.006.134.033.200;-6.207.813.644.409.180;6.355.869.674.682.610;774.704.122.543.335;-334.689.879.417.419;102.479.779.720.306;4.578.289.413.452.140;193.823.266.029.358;-691.194.963.455.200
128;945989713;-5.994.672.012.329.100;-6.210.534.667.968.750;6.348.563.766.479.490;778.599.262.237.549;-345.747.208.595.276;0.57693344354630;1.943.250.465.393.060;186.087.501.049.042;-462.840.414.047.241
129;945998046;-5.997.240.066.528.320;-6.211.233.901.977.530;6.344.173.431.396.480;791.022.872.924.805;-308.522.415.161.133;133.524.525.165.558;-857.857.894.897.461;165.242.552.757.263;-170.635.640.621.185
130;946006379;-6.021.541.213.989.250;-6.209.875.488.281.250;6.343.778.610.229.490;796.402.549.743.652;-342.949.771.881.104;217.261.815.071.106;-3.040.469.360.351.560;0.94027364253998;154.968.798.160.553
131;946014712;-6.054.718.780.517.570;-6.207.167.434.692.380;6.345.632.553.100.580;823.802.375.793.457;-486.191.654.205.322;265.509.819.984.436;-3.861.723.327.636.710;0.61115646362305;360.735.964.775.085
132;946023045;-6.085.050.964.355.460;-6.203.715.515.136.710;6.348.085.784.912.100;836.657.524.108.887;-512.428.379.058.838;311.440.563.201.904;-3.462.173.461.914.060;0.76015442609787;453.836.011.886.597
133;946031378;-6.108.533.859.252.930;-6.199.174.118.041.990;6.351.481.246.948.240;848.050.117.492.676;-445.532.035.827.637;320.097.255.706.787;-2.536.777.496.337.890;0.87667328119278;599.283.742.904.663
134;946039711;-6.123.337.173.461.910;-6.193.156.051.635.740;6.356.037.521.362.300;853.509.140.014.648;-446.725.368.499.756;288.013.863.563.538;-1.376.098.155.975.340;116.888.022.422.791;781.577.539.443.970
135;946048044;-6.129.278.564.453.120;-6.185.789.489.746.090;6.360.717.010.498.040;842.743.206.024.170;-507.128.429.412.842;292.430.925.369.263;-293.896.436.691.284;182.014.751.434.326;933.369.827.270.508
136;946056377;-6.130.783.462.524.410;-6.177.431.488.037.100;6.366.174.697.875.970;830.475.044.250.488;-528.318.738.937.378;308.306.288.719.177;314.489.030.838.013;203.981.542.587.280;1.053.626.155.853.270
137;946064710;-6.131.897.354.125.970;-6.168.053.817.749.020;6.372.804.260.253.900;833.133.888.244.629;-502.292.490.005.493;259.199.857.711.792;451.074.409.484.863;215.758.943.557.739;1.189.801.883.697.510
138;946073043;-6.134.573.364.257.810;-6.157.375.335.693.350;6.379.526.519.775.390;848.262.977.600.098;-494.806.146.621.704;233.443.760.871.887;306.277.179.718.018;272.051.429.748.535;1.333.290.481.567.380
139;946081376;-6.139.601.898.193.350;-6.145.576.858.520.500;6.386.569.976.806.640;856.205.177.307.129;-519.612.073.898.315;249.398.589.134.216;0.49635285139084;319.599.151.611.328;1.463.487.720.489.500
140;946089709;-6.145.988.845.825.190;-6.132.945.632.934.570;6.393.706.130.981.440;856.518.554.687.500;-540.011.167.526.245;280.123.901.367.188;-0.96851283311844;358.279.156.684.875;1.552.023.029.327.390
141;946098042;-6.150.092.315.673.820;-6.119.712.448.120.110;6.400.151.824.951.170;863.899.803.161.621;-550.812.625.885.010;285.813.570.022.583;0.98279285430908;425.775.337.219.238;1.600.938.796.997.070
142;946106375;-6.148.864.364.624.020;-6.105.730.056.762.690;6.405.778.503.417.960;862.239.551.544.189;-525.038.290.023.804;283.720.254.898.071;656.367.492.675.781;507.661.437.988.281;1.654.723.548.889.160
143;946114708;-6.141.522.979.736.320;-6.091.337.585.449.210;6.410.585.021.972.650;865.960.597.991.943;-538.512.754.440.308;317.569.708.824.158;1.302.996.730.804.440;572.593.688.964.844;1.677.384.948.730.460
144;946123041;-6.129.133.224.487.300;-6.076.851.654.052.730;6.414.928.436.279.290;860.896.682.739.258;-569.458.866.119.385;306.267.118.453.979;1.859.871.101.379.390;604.081.344.604.492;1.672.513.198.852.530
145;946131374;-6.113.472.747.802.730;-6.062.340.164.184.570;6.418.579.864.501.950;850.232.124.328.613;-544.343.471.527.100;300.428.795.814.514;2.175.866.889.953.610;644.920.825.958.252;1.655.354.499.816.890
146;946139707;-6.098.751.068.115.230;-6.047.989.273.071.280;6.422.023.773.193.350;857.081.985.473.633;-540.920.066.833.496;282.302.808.761.597;2.044.125.175.476.070;649.077.987.670.898;1.630.201.339.721.680
147;946148040;-6.087.212.753.295.890;-6.033.801.651.000.970;6.425.426.483.154.290;844.224.739.074.707;-527.786.540.985.107;245.190.739.631.653;1.650.525.665.283.200;647.128.582.000.732;1.610.178.184.509.270
148;946156373;-6.081.676.864.624.020;-6.019.722.366.333.000;6.429.071.807.861.320;835.975.074.768.066;-521.378.850.936.890;279.412.841.796.875;961.789.131.164.551;627.192.926.406.860;1.606.427.955.627.440
149;946164706;-6.084.120.178.222.650;-6.006.043.624.877.930;6.433.428.192.138.670;836.512.565.612.793;-537.587.976.455.688;270.509.839.057.922;0.74757719039917;566.484.498.977.661;1.586.627.864.837.640
150;946173039;-6.092.934.417.724.600;-5.992.794.418.334.960;6.438.066.101.074.210;834.027.767.181.396;-517.193.269.729.614;227.902.173.995.972;-658.289.766.311.646;524.008.417.129.517;1.549.515.342.712.400
151;946181372;-6.107.459.640.502.930;-5.979.878.997.802.730;6.442.926.788.330.070;829.950.618.743.896;-487.299.251.556.396;271.688.008.308.411;-1.315.507.984.161.370;484.642.028.808.594;1.526.452.732.086.180
152;946189705;-6.127.898.788.452.140;-5.967.457.199.096.680;6.448.869.323.730.460;826.726.722.717.285;-520.078.277.587.891;282.209.682.464.600;-1.919.192.504.882.810;397.246.336.936.951;1.504.429.912.567.130
153;946198038;-6.150.398.254.394.530;-5.955.884.170.532.220;6.454.610.443.115.230;828.182.315.826.416;-536.079.359.054.565;243.017.435.073.853;-2.176.044.464.111.320;343.476.843.833.923;1.419.849.109.649.650
154;946206371;-6.172.925.567.626.950;-5.944.929.122.924.800;6.460.115.051.269.530;822.697.544.097.900;-468.866.014.480.591;266.791.439.056.396;-2.216.450.881.958.000;323.533.582.687.378;1.341.018.581.390.380
155;946214704;-6.197.087.478.637.690;-5.934.696.960.449.210;6.466.558.074.951.170;819.188.308.715.820;-478.141.021.728.516;289.566.516.876.221;-2.341.763.687.133.780;235.866.260.528.564;1.290.656.089.782.710
156;946223037;-6.220.732.879.638.670;-5.925.067.520.141.600;6.472.932.434.082.030;816.333.580.017.090;-529.266.500.473.022;236.277.842.521.667;-2.262.392.807.006.830;189.596.688.747.406;1.229.204.750.061.030
157;946231370;-6.240.909.194.946.280;-5.916.115.951.538.080;6.478.520.202.636.710;816.567.802.429.199;-472.648.191.452.026;241.183.829.307.556;-1.954.742.431.640.620;196.722.555.160.522;1.136.535.072.326.660
158;946239703;-6.260.295.867.919.920;-5.907.514.572.143.550;6.484.083.557.128.900;814.227.199.554.443;-419.362.020.492.554;258.711.099.624.634;-1.835.817.909.240.720;166.077.661.514.282;1.098.943.424.224.850
159;946248036;-6.278.691.864.013.670;-5.899.349.975.585.930;6.489.453.887.939.450;812.736.988.067.627;-473.349.475.860.596;223.839.116.096.497;-1.737.978.935.241.690;143.209.218.978.882;1.054.984.092.712.400
160;946256369;-6.294.103.240.966.790;-5.891.630.554.199.210;6.494.026.947.021.480;810.956.764.221.191;-478.492.307.662.964;225.716.495.513.916;-1.461.613.845.825.190;164.241.051.673.889;978.064.441.680.908
161;946264702;-6.307.793.807.983.390;-5.884.211.349.487.300;6.498.172.760.009.760;810.352.706.909.180;-414.219.999.313.354;244.063.353.538.513;-1.294.124.794.006.340;162.189.364.433.289;941.784.286.499.023
162;946273035;-6.320.748.519.897.460;-5.876.972.961.425.780;6.502.091.217.041.010;814.255.142.211.914;-407.603.788.375.854;205.555.462.837.219;-1.234.917.545.318.600;168.705.630.302.429;910.107.135.772.705
163;946281368;-6.332.896.804.809.570;-5.869.800.949.096.680;6.505.534.362.792.960;819.274.234.771.729;-439.499.855.041.504;198.061.668.872.833;-1.192.746.257.781.980;188.748.776.912.689;893.506.717.681.885
164;946289701;-6.345.456.695.556.640;-5.863.058.471.679.680;6.508.473.968.505.850;823.943.805.694.580;-425.580.501.556.396;216.515.398.025.513;-1.288.307.952.880.850;191.930.043.697.357;831.102.752.685.547
165;946298034;-6.358.573.532.104.490;-5.856.509.399.414.060;6.511.279.296.875.000;823.823.833.465.576;-396.186.494.827.271;198.237.037.658.691;-1.394.184.398.651.120;197.552.382.946.014;803.208.732.604.980
166;946306367;-6.371.376.800.537.100;-5.850.050.354.003.900;6.513.559.722.900.390;825.123.119.354.248;-389.385.604.858.398;195.941.984.653.473;-1.385.624.122.619.620;209.785.771.369.934;782.725.000.381.470
167;946314700;-6.383.322.906.494.140;-5.843.929.672.241.210;6.515.729.522.705.070;824.064.922.332.764;-414.167.356.491.089;235.115.075.111.389;-1.299.583.244.323.730;196.625.137.329.102;745.515.251.159.668
168;946323033;-6.392.594.146.728.510;-5.838.267.517.089.840;6.517.625.427.246.090;833.175.849.914.551;-416.809.177.398.682;219.234.848.022.461;-1.001.251.411.437.980;185.646.843.910.217;687.983.036.041.260
169;946331366;-6.396.143.722.534.180;-5.832.955.551.147.460;6.518.622.589.111.320;836.581.516.265.869;-368.961.453.437.805;203.052.186.965.942;-407.336.807.250.977;215.369.629.859.924;627.715.349.197.388
170;946339699;-6.395.377.349.853.510;-5.827.817.153.930.660;6.519.316.101.074.210;839.160.919.189.453;-376.243.472.099.304;228.598.189.353.943;0.80251967906952;225.044.131.278.992;598.389.530.181.885
171;946348032;-6.391.869.354.248.040;-5.823.207.473.754.880;6.519.814.300.537.100;838.212.013.244.629;-419.689.273.834.229;211.065.101.623.535;385.965.538.024.902;207.621.288.299.561;538.221.693.038.940
172;946356365;-6.386.283.493.041.990;-5.819.211.196.899.410;6.520.008.087.158.200;839.480.972.290.039;-395.946.812.629.700;186.750.137.805.939;607.572.317.123.413;193.536.055.088.043;461.030.721.664.429
173;946364698;-6.380.461.502.075.190;-5.815.441.131.591.790;6.519.781.494.140.620;843.756.771.087.646;-349.678.134.918.213;191.101.169.586.182;606.045.722.961.426;196.053.946.018.219;432.580.947.875.977
174;946373031;-6.376.821.899.414.060;-5.811.776.733.398.430;6.519.763.183.593.750;843.298.149.108.887;-368.490.123.748.779;180.101.561.546.326;352.623.486.518.860;188.979.256.153.107;419.153.881.072.998
175;946381364;-6.375.759.124.755.850;-5.808.441.925.048.820;6.519.352.722.167.960;842.958.927.154.541;-394.110.751.152.039;162.382.066.249.847;0.20424790680408;182.898.449.897.766;379.866.814.613.342
176;946389697;-6.377.116.775.512.690;-5.805.447.006.225.580;6.519.110.107.421.870;847.861.576.080.322;-381.736.350.059.509;195.872.843.265.533;-269.895.935.058.594;166.154.432.296.753;340.533.590.316.772
177;946398030;-6.379.653.549.194.330;-5.802.800.369.262.690;6.518.830.108.642.570;852.155.399.322.510;-366.292.691.230.774;191.516.041.755.676;-397.295.975.685.120;138.437.259.197.235;309.394.359.588.623
178;946406363;-6.381.310.653.686.520;-5.800.366.210.937.500;6.518.617.248.535.150;842.271.423.339.844;-352.121.567.726.135;204.260.253.906.250;-302.733.373.641.968;134.484.994.411.469;281.203.341.484.070
179;946414696;-6.385.066.604.614.250;-5.798.190.689.086.910;6.520.159.912.109.370;867.665.481.567.383;-398.245.978.355.408;290.788.269.042.969;-404.532.051.086.426;0.33260083198547;299.548.268.318.176
180;946423029;-6.379.306.030.273.430;-5.796.496.963.500.970;6.518.508.911.132.810;875.813.674.926.758;-475.940.465.927.124;-0.19734948873520;440.626.335.144.043;177.529.716.491.699;161.064.875.125.885
181;946431362;-6.365.135.955.810.540;-5.794.887.542.724.600;6.515.164.184.570.310;840.808.963.775.635;-283.529.782.295.227;399.915.003.776.550;1.275.512.409.210.200;267.002.844.810.486;110.855.865.478.516
182;946439695;-6.356.521.606.445.310;-5.793.917.083.740.230;6.514.942.169.189.450;869.261.932.373.047;-460.398.244.857.788;202.467.226.982.117;928.943.920.135.498;0.58175057172775;122.945.785.522.461
183;946448028;-6.339.629.364.013.670;-5.793.328.857.421.870;6.511.576.080.322.260;839.198.684.692.383;-440.136.528.015.137;0.50819551944733;1.610.623.359.680.170;209.291.410.446.167;0.00829901359975
184;946456361;-6.322.142.028.808.590;-5.792.527.770.996.090;6.507.920.074.462.890;858.298.206.329.346;-310.158.300.399.780;318.244.957.923.889;1.644.355.010.986.320;244.864.487.648.010;0.06229384243488
185;946464694;-6.314.117.813.110.350;-5.792.158.889.770.500;6.506.981.658.935.540;845.445.919.036.865;-381.179.404.258.728;200.456.929.206.848;780.422.306.060.791;0.64868062734604;0.45350012183189
186;946473027;-6.307.392.120.361.320;-5.791.722.488.403.320;6.504.949.951.171.870;838.013.458.251.953;-477.263.450.622.559;0.65966314077377;518.024.826.049.805;132.750.880.718.231;0.13158032298088
187;946481360;-6.304.147.720.336.910;-5.791.707.992.553.710;6.502.797.698.974.600;849.229.907.989.502;-388.988.041.877.747;257.038.116.455.078;0.48930871486664;134.525.954.723.358;-0.40387243032455
188;946489693;-6.310.227.584.838.860;-5.791.993.713.378.900;6.502.727.508.544.920;840.683.364.868.164;-347.468.662.261.963;212.654.161.453.247;-819.282.817.840.576;-0.17908190190792;-0.07490882277489
189;946498026;-6.316.894.531.250.000;-5.792.366.409.301.750;6.502.263.641.357.420;843.920.040.130.615;-440.412.807.464.600;127.693.724.632.263;-938.058.662.414.551;0.00845269765705;-0.23535642027855
190;946506359;-6.321.266.937.255.850;-5.793.214.035.034.180;6.501.097.106.933.590;846.552.562.713.623;-443.876.266.479.492;263.134.479.522.705;-725.944.614.410.400;0.14080145955086;-0.99315357208252
191;946514692;-6.325.225.067.138.670;-5.794.617.080.688.470;6.500.832.366.943.350;834.167.289.733.887;-399.731.254.577.637;254.624.819.755.554;-578.954.696.655.273;-0.71900439262390;-127.637.004.852.295
192;946523025;-6.324.359.130.859.370;-5.796.337.127.685.540;6.500.205.993.652.340;845.240.211.486.816;-428.824.806.213.379;166.650.903.224.945;-0.42298066616058;-0.63570684194565;-177.351.677.417.755
193;946531358;-6.317.913.436.889.640;-5.798.345.565.795.890;6.498.760.986.328.120;847.195.053.100.586;-435.697.984.695.435;230.507.993.698.120;537.740.182.876.587;-0.34027227759361;-223.475.265.502.930
194;946539691;-6.310.250.091.552.730;-5.800.732.040.405.270;6.497.676.849.365.230;835.365.009.307.861;-417.667.007.446.289;243.223.786.354.065;726.939.582.824.707;-0.74249261617661;-261.602.044.105.530
195;946548024;-6.302.016.830.444.330;-5.803.496.932.983.390;6.496.358.489.990.230;837.885.189.056.396;-440.226.793.289.185;184.432.446.956.635;810.549.736.022.949;-106.845.939.159.393;-289.211.630.821.228
196;946556357;-6.294.059.753.417.960;-5.806.414.794.921.870;6.495.245.361.328.120;843.094.825.744.629;-430.626.535.415.649;192.668.354.511.261;759.387.779.235.840;-102.563.226.222.992;-319.277.572.631.836
197;946564690;-6.289.820.861.816.400;-5.809.405.136.108.390;6.494.574.737.548.820;837.633.895.874.023;-402.470.302.581.787;206.153.535.842.896;355.743.312.835.693;-133.807.492.256.165;-306.493.544.578.552
198;946573023;-6.290.423.202.514.640;-5.812.310.791.015.620;6.494.603.729.248.040;838.945.102.691.650;-437.202.882.766.724;181.181.192.398.071;-151.837.348.937.988;-166.970.241.069.794;-284.437.155.723.572
199;946581356;-6.294.237.899.780.270;-5.815.336.608.886.710;6.494.321.441.650.390;836.516.666.412.354;-442.590.951.919.556;186.653.208.732.605;-542.948.818.206.787;-171.990.609.169.006;-293.527.626.991.272
200;946589689;-6.301.179.504.394.530;-5.818.360.900.878.900;6.494.750.976.562.500;834.844.970.703.125;-421.077.680.587.769;220.310.688.018.799;-871.653.842.926.025;-195.522.451.400.757;-285.687.112.808.228
201;946598022;-6.309.852.981.567.380;-5.821.725.463.867.180;6.495.563.507.080.070;837.982.177.734.375;-444.707.918.167.114;226.253.008.842.468;-1.026.169.013.977.050;-245.582.890.510.559;-300.225.734.710.693
202;946606355;-6.316.884.231.567.380;-5.825.224.685.668.940;6.496.397.399.902.340;844.054.889.678.955;-471.823.024.749.756;212.124.776.840.210;-841.190.814.971.924;-243.349.385.261.536;-325.911.736.488.342
203;946614688;-6.320.271.301.269.530;-5.828.842.544.555.660;6.496.846.771.240.230;849.070.358.276.367;-434.940.671.920.776;233.063.268.661.499;-440.622.520.446.777;-231.851.100.921.631;-340.716.743.469.238
204;946623021;-6.321.353.912.353.510;-5.832.458.496.093.750;6.497.599.029.541.010;853.683.853.149.414;-434.883.022.308.350;238.609.886.169.434;-135.436.546.802.521;-244.368.791.580.200;-341.080.427.169.800
205;946631354;-6.320.040.893.554.680;-5.836.190.414.428.710;6.497.780.609.130.850;857.842.159.271.240;-474.170.351.028.442;201.832.985.877.991;125.740.277.767.181;-238.720.846.176.147;-350.880.455.970.764
206;946639687;-6.317.130.661.010.740;-5.840.055.465.698.240;6.497.870.635.986.320;854.447.650.909.424;-455.312.919.616.699;211.966.896.057.129;276.177.811.622.620;-220.872.855.186.462;-386.507.296.562.195
207;946648020;-6.315.703.201.293.940;-5.843.967.819.213.860;6.498.468.780.517.570;846.735.191.345.215;-434.194.231.033.325;225.543.904.304.504;136.536.693.572.998;-248.098.206.520.081;-371.379.542.350.769
208;946656353;-6.317.547.988.891.600;-5.847.876.358.032.220;6.499.542.236.328.120;847.437.477.111.816;-467.226.266.860.962;200.320.529.937.744;-194.003.498.554.230;-278.443.408.012.390;-363.354.539.871.216
209;946664686;-6.321.405.029.296.870;-5.852.148.437.500.000;6.500.228.881.835.930;848.581.218.719.482;-485.430.812.835.693;189.239.728.450.775;-475.585.889.816.284;-279.181.051.254.272;-403.412.675.857.544
210;946673019;-6.328.107.452.392.570;-5.856.404.495.239.250;6.501.371.002.197.260;842.798.042.297.363;-444.495.487.213.135;224.746.823.310.852;-769.890.975.952.148;-300.036.239.624.023;-398.558.831.214.905
211;946681352;-6.337.293.243.408.200;-5.860.688.400.268.550;6.502.856.445.312.500;838.335.418.701.172;-443.525.362.014.771;231.632.018.089.294;-1.020.131.874.084.470;-329.807.662.963.867;-381.276.917.457.581
212;946689685;-6.346.625.518.798.820;-5.864.930.343.627.930;6.504.599.761.962.890;844.927.883.148.193;-486.728.811.264.038;214.020.276.069.641;-1.023.720.264.434.810;-331.508.398.056.030;-381.614.923.477.173
213;946698018;-6.354.293.060.302.730;-5.869.366.836.547.850;6.506.164.550.781.250;843.474.102.020.264;-468.746.280.670.166;227.089.405.059.814;-851.508.140.563.965;-330.294.322.967.529;-399.045.491.218.567
214;946706351;-6.361.167.526.245.110;-5.873.712.158.203.120;6.507.803.344.726.560;842.255.020.141.602;-438.322.210.311.890;239.878.249.168.396;-739.079.570.770.264;-329.971.575.737.000;-396.640.276.908.875
215;946714684;-6.367.622.756.958.000;-5.877.866.744.995.110;6.510.229.492.187.500;842.088.699.340.820;-461.776.161.193.848;223.873.519.897.461;-643.574.428.558.350;-347.924.590.110.779;-354.994.153.976.440
216;946723017;-6.373.026.275.634.760;-5.881.740.188.598.630;6.512.506.103.515.620;843.659.496.307.373;-481.595.230.102.539;232.208.371.162.415;-496.984.052.658.081;-339.200.353.622.437;-329.151.868.820.190
217;946731350;-6.377.552.032.470.700;-5.885.704.421.997.070;6.514.779.663.085.930;846.084.976.196.289;-463.416.051.864.624;229.962.134.361.267;-413.381.814.956.665;-336.188.149.452.209;-334.349.060.058.594
218;946739683;-6.381.510.162.353.510;-5.889.325.332.641.600;6.516.914.367.675.780;849.314.022.064.209;-450.586.938.858.032;215.128.183.364.868;-338.027.191.162.109;-317.108.082.771.301;-306.777.834.892.273
219;946748016;-6.385.477.066.040.030;-5.892.708.206.176.750;6.519.047.546.386.710;849.764.537.811.279;-469.741.439.819.336;232.760.953.903.198;-339.236.211.776.733;-307.118.511.199.951;-272.467.613.220.215
220;946756349;-6.390.286.254.882.810;-5.895.905.303.955.070;6.521.700.286.865.230;850.506.782.531.738;-483.106.708.526.611;240.330.100.059.509;-386.853.075.027.466;-322.950.696.945.190;-247.278.547.286.987
221;946764682;-6.394.459.533.691.400;-5.899.122.619.628.900;6.524.245.452.880.850;852.669.048.309.326;-475.272.417.068.481;226.245.641.708.374;-339.074.826.240.540;-312.005.710.601.807;-247.578.215.599.060
222;946773015;-6.398.289.871.215.820;-5.901.912.689.208.980;6.526.628.112.792.960;855.844.688.415.527;-451.522.111.892.700;228.620.862.960.815;-296.890.735.626.221;-285.661.458.969.116;-211.252.117.156.982
223;946781348;-6.402.868.652.343.750;-5.904.459.381.103.510;6.529.368.591.308.590;854.866.504.669.189;-462.420.082.092.285;237.497.353.553.772;-355.506.396.293.640;-291.824.269.294.739;-171.055.722.236.633
224;946789681;-6.408.049.774.169.920;-5.906.710.815.429.680;6.532.363.128.662.100;849.004.554.748.535;-480.017.185.211.182;229.693.293.571.472;-395.820.569.992.065;-290.935.420.989.990;-137.139.892.578.125
225;946798014;-6.413.281.250.000.000;-5.908.866.500.854.490;6.535.064.697.265.620;844.830.036.163.330;-467.052.745.819.092;239.952.349.662.781;-426.096.630.096.436;-275.013.613.700.867;-125.528.955.459.595
226;946806347;-6.419.457.244.873.040;-5.910.647.201.538.080;6.538.209.533.691.400;846.342.754.364.014;-458.659.458.160.400;236.511.015.892.029;-499.714.517.593.384;-273.922.467.231.750;-0.82978600263596
227;946814680;-6.425.543.212.890.620;-5.912.176.895.141.600;6.541.255.187.988.280;845.286.369.323.730;-465.448.904.037.476;224.100.279.808.044;-505.270.242.691.040;-255.037.117.004.395;-0.52185159921646
228;946823013;-6.431.237.792.968.750;-5.913.300.704.956.050;6.544.039.154.052.730;842.945.766.448.975;-461.043.357.849.121;238.620.877.265.930;-478.897.809.982.300;-219.597.220.420.837;-0.22155031561852
229;946831346;-6.436.484.527.587.890;-5.914.181.518.554.680;6.546.407.318.115.230;848.468.399.047.852;-469.924.116.134.644;239.388.680.458.069;-448.606.443.405.151;-196.887.671.947.479;0.05783694982529
230;946839679;-6.440.187.072.753.900;-5.914.874.267.578.120;6.548.915.100.097.650;849.589.061.737.061;-469.087.839.126.587;230.651.116.371.155;-268.061.923.980.713;-181.426.906.585.693;0.16723532974720
231;946848012;-6.441.306.304.931.640;-5.915.541.458.129.880;6.551.074.981.689.450;852.494.430.541.992;-464.524.936.676.025;260.357.761.383.057;-0.08023658394814;-157.275.235.652.924;0.15391591191292
232;946856345;-6.440.183.258.056.640;-5.916.055.679.321.280;6.552.842.712.402.340;853.772.163.391.113;-472.740.173.339.844;246.132.278.442.383;234.531.593.322.754;-131.192.278.862.000;0.16221494972706
233;946864678;-6.436.512.756.347.650;-5.916.552.352.905.270;6.553.672.790.527.340;852.120.113.372.803;-471.768.045.425.415;238.120.174.407.959;467.073.011.398.315;-0.92773491144180;0.05261164531112
234;946873011;-6.432.376.861.572.260;-5.916.922.760.009.760;6.554.606.628.417.960;853.297.615.051.270;-453.850.078.582.764;248.281.598.091.125;510.486.507.415.771;-0.77410054206848;0.09928076714277
235;946881344;-6.429.619.598.388.670;-5.917.252.349.853.510;6.555.375.671.386.710;851.270.961.761.475;-462.273.359.298.706;235.325.407.981.873;338.412.690.162.659;-0.74369645118713;0.18552389740944
236;946889677;-6.428.425.598.144.530;-5.917.434.692.382.810;6.556.026.458.740.230;847.448.062.896.729;-467.864.608.764.648;213.876.438.140.869;127.822.697.162.628;-0.51926457881927;0.22722385823727
237;946898010;-6.429.806.518.554.680;-5.917.526.245.117.180;6.556.893.920.898.430;844.232.749.938.965;-451.148.366.928.101;239.718.890.190.125;-181.073.439.121.246;-0.50994104146957;0.40209230780602
238;946906343;-6.434.451.293.945.310;-5.917.613.220.214.840;6.557.750.701.904.290;840.781.974.792.480;-461.429.595.947.266;237.760.162.353.516;-551.468.133.926.392;-0.58499073982239;0.38375249505043
239;946914676;-6.440.447.998.046.870;-5.917.798.233.032.220;6.558.532.714.843.750;844.435.501.098.633;-477.043.008.804.321;234.774.899.482.727;-726.356.983.184.814;-0.60499542951584;0.33600756525993
240;946923009;-6.446.643.066.406.250;-5.917.975.997.924.800;6.559.184.265.136.710;843.492.603.302.002;-455.301.475.524.902;239.567.923.545.837;-758.628.273.010.254;-0.51742035150528;0.22886314988136
241;946931342;-6.452.744.293.212.890;-5.918.066.024.780.270;6.559.734.344.482.420;835.436.439.514.160;-440.092.658.996.582;242.978.620.529.175;-763.733.386.993.408;-0.42267337441444;0.36933171749115
242;946939675;-6.459.021.759.033.200;-5.918.203.353.881.830;6.560.361.480.712.890;834.812.831.878.662;-465.037.775.039.673;245.270.752.906.799;-771.271.610.260.010;-0.48094573616982;0.26592701673508
243;946948008;-6.464.237.213.134.760;-5.918.377.304.077.140;6.560.726.165.771.480;834.581.375.122.070;-472.702.550.888.062;242.006.611.824.036;-675.376.939.773.560;-0.37551745772362;0.24010783433914
244;946956341;-6.467.593.383.789.060;-5.918.548.202.514.640;6.560.765.838.623.040;836.802.291.870.117;-439.847.612.380.981;242.421.722.412.109;-480.957.221.984.863;-0.17157696187496;0.07917360216379
245;946964674;-6.469.489.288.330.070;-5.918.675.994.873.040;6.560.816.192.626.950;837.572.097.778.320;-434.711.360.931.396;248.796.033.859.253;-321.539.354.324.341;-0.11391931027174;0.17281925678253
246;946973007;-6.470.380.401.611.320;-5.918.666.839.599.600;6.560.680.389.404.290;838.837.146.759.033;-461.589.336.395.264;235.083.460.807.800;-203.288.650.512.695;0.01693100854754;0.22240839898586
247;946981340;-6.469.850.158.691.400;-5.918.740.081.787.100;6.559.996.032.714.840;839.153.671.264.648;-454.231.262.207.031;233.355.784.416.199;-0.91316032409668;0.24943144619465;0.07850763946772
248;946989673;-6.469.124.603.271.480;-5.918.734.741.210.930;6.559.103.393.554.680;842.850.208.282.471;-438.720.321.655.273;234.100.413.322.449;-0.87440592050552;0.43405881524086;0.02059384435415
249;946998006;-6.468.571.472.167.960;-5.918.758.010.864.250;6.557.978.057.861.320;844.927.406.311.035;-445.198.678.970.337;225.717.258.453.369;-135.769.546.031.952;0.52698725461960;0.01273027434945
250;947006339;-6.468.590.545.654.290;-5.918.728.637.695.310;6.556.568.145.751.950;842.570.495.605.469;-445.832.347.869.873;222.334.718.704.224;-229.955.649.375.916;0.73346370458603;-0.08833069354296
251;947014672;-6.469.642.639.160.150;-5.918.832.397.460.930;6.554.962.158.203.120;841.734.981.536.865;-441.059.350.967.407;233.012.461.662.292;-378.664.159.774.780;0.75482577085495;-0.20052100718021
252;947023005;-6.471.955.108.642.570;-5.919.090.652.465.820;6.553.369.140.625.000;845.321.464.538.574;-458.364.868.164.062;230.111.861.228.943;-524.163.341.522.217;0.68915098905563;-0.45230895280838
253;947031338;-6.473.845.672.607.420;-5.919.425.201.416.010;6.551.291.656.494.140;845.559.501.647.949;-442.509.174.346.924;218.197.560.310.364;-527.170.419.692.993;0.89713865518570;-0.57320815324783
254;947039671;-6.475.228.881.835.930;-5.919.570.541.381.830;6.549.080.657.958.980;843.788.433.074.951;-423.292.303.085.327;240.326.070.785.522;-476.431.179.046.631;109.003.937.244.415;-0.48478782176971
255;947048004;-6.475.794.982.910.150;-5.919.781.112.670.890;6.546.843.719.482.420;846.641.921.997.070;-442.069.005.966.187;234.897.470.474.243;-386.860.728.263.855;105.876.433.849.335;-0.49436751008034
256;947056337;-6.474.620.056.152.340;-5.920.048.141.479.490;6.544.274.902.343.750;845.906.734.466.553;-454.198.932.647.705;227.404.093.742.371;-206.308.579.444.885;122.756.218.910.217;-0.71290814876556
257;947064670;-6.471.490.478.515.620;-5.920.274.353.027.340;6.541.127.777.099.600;845.434.188.842.773;-433.982.849.121.094;226.398.992.538.452;-0.31719386577606;152.691.566.944.122;-0.72812306880951
258;947073003;-6.468.032.073.974.600;-5.920.392.227.172.850;6.538.094.329.833.980;843.196.582.794.189;-419.298.744.201.660;223.796.653.747.559;0.19886891543865;155.836.999.416.351;-0.67461490631104
259;947081336;-6.464.949.035.644.530;-5.920.419.692.993.160;6.535.188.293.457.030;847.274.875.640.869;-438.847.637.176.514;224.009.871.482.849;-0.13092716038227;149.817.657.470.703;-0.45528018474579
260;947089669;-6.462.589.263.916.010;-5.920.521.926.879.880;6.532.509.613.037.100;849.203.395.843.506;-447.106.313.705.444;220.105.147.361.755;-0.75278955698013;137.164.235.115.051;-0.56693267822266
261;947098002;-6.460.858.917.236.320;-5.920.600.128.173.820;6.529.747.009.277.340;851.517.677.307.129;-429.870.986.938.477;216.755.247.116.089;-173.355.853.557.587;145.601.558.685.303;-0.50489503145218
262;947106335;-6.459.928.131.103.510;-5.920.530.319.213.860;6.527.118.682.861.320;860.143.947.601.318;-421.120.977.401.733;214.689.087.867.737;-241.651.105.880.737;142.881.321.907.043;-0.37054833769798
263;947114668;-6.459.154.510.498.040;-5.920.326.232.910.150;6.524.495.697.021.480;862.427.234.649.658;-433.793.067.932.129;221.170.091.629.028;-283.486.843.109.131;157.355.940.341.949;-0.17795489728451
264;947123001;-6.458.264.923.095.700;-5.920.251.083.374.020;6.521.646.881.103.510;863.727.855.682.373;-444.425.249.099.731;226.467.633.247.375;-269.194.054.603.577;155.455.338.954.926;-0.42093145847321
265;947131334;-6.456.756.591.796.870;-5.920.381.546.020.500;6.518.476.867.675.780;868.454.456.329.346;-444.403.743.743.896;215.538.883.209.229;-225.001.835.823.059;156.725.811.958.313;-0.62797141075134
266;947139667;-6.454.890.441.894.530;-5.920.638.275.146.480;6.515.160.369.873.040;870.765.209.197.998;-434.425.401.687.622;205.819.320.678.711;-200.089.406.967.163;164.241.027.832.031;-0.90370863676071
267;947148000;-6.453.339.385.986.320;-5.920.931.243.896.480;6.511.754.608.154.290;872.163.867.950.439;-435.539.913.177.490;210.971.713.066.101;-258.033.943.176.270;169.392.049.312.592;-0.91920518875122
268;947156333;-6.452.566.528.320.310;-5.921.156.692.504.880;6.508.467.864.990.230;869.133.853.912.354;-444.426.155.090.332;216.073.822.975.159;-328.247.690.200.806;164.069.414.138.794;-0.86446762084961
269;947164666;-6.451.285.552.978.510;-5.921.611.404.418.940;6.504.988.098.144.530;867.721.748.352.051;-443.941.211.700.439;212.087.631.225.586;-290.963.602.066.040;161.402.976.512.909;-109.453.475.475.311
270;947172999;-6.449.315.643.310.540;-5.922.043.991.088.860;6.501.355.743.408.200;866.715.145.111.084;-435.856.389.999.390;222.482.228.279.114;-220.591.068.267.822;172.565.662.860.870;-117.924.106.121.063
271;947181332;-6.447.264.099.121.090;-5.922.571.182.250.970;6.498.294.067.382.810;861.649.799.346.924;-442.445.468.902.588;210.660.314.559.937;-191.267.907.619.476;152.532.768.249.512;-114.932.346.343.994
272;947189665;-6.445.155.334.472.650;-5.923.020.553.588.860;6.494.729.614.257.810;855.945.205.688.477;-446.500.873.565.674;201.663.279.533.386;-196.959.376.335.144;167.760.431.766.510;-118.052.160.739.899
273;947197998;-6.443.888.854.980.460;-5.923.436.737.060.540;6.491.142.272.949.210;850.060.653.686.523;-440.437.459.945.679;210.733.962.059.021;-298.847.723.007.202;166.236.400.604.248;-106.254.267.692.566
274;947206331;-6.444.789.123.535.150;-5.923.821.258.544.920;6.488.107.299.804.680;847.551.059.722.900;-441.837.453.842.163;206.549.334.526.062;-503.400.421.142.578;141.631.352.901.459;-0.97302085161209
275;947214664;-6.446.977.233.886.710;-5.924.202.346.801.750;6.485.221.862.792.960;845.935.344.696.045;-452.480.268.478.394;190.789.639.949.799;-654.273.366.928.101;135.332.798.957.825;-0.85642474889755
276;947222997;-6.449.852.752.685.540;-5.924.568.939.208.980;6.482.352.447.509.760;847.737.789.154.053;-447.910.594.940.186;209.701.442.718.506;-723.526.620.864.868;133.562.874.794.006;-0.90373432636261
277;947231330;-6.453.123.474.121.090;-5.924.955.749.511.710;6.479.846.954.345.700;848.001.003.265.381;-447.444.486.618.042;210.892.200.469.971;-757.416.915.893.555;120.304.954.051.971;-0.79689741134644
278;947239663;-6.455.938.720.703.120;-5.925.307.846.069.330;6.477.302.551.269.530;840.120.124.816.895;-455.377.197.265.625;199.640.917.778.015;-682.771.778.106.689;116.537.106.037.140;-0.80248123407364
279;947247996;-6.457.898.712.158.200;-5.925.762.939.453.120;6.474.948.120.117.180;839.077.854.156.494;-456.353.616.714.478;213.885.569.572.449;-583.444.881.439.209;108.010.101.318.359;-0.82625114917755
280;947256329;-6.458.843.994.140.620;-5.926.127.624.511.710;6.472.554.016.113.280;839.462.566.375.732;-457.665.205.001.831;217.675.614.356.995;-442.738.246.917.725;107.497.835.159.302;-0.77328097820282
281;947264662;-6.457.983.398.437.500;-5.926.553.726.196.280;6.470.233.154.296.870;840.165.519.714.355;-457.788.753.509.521;208.550.429.344.177;-226.267.194.747.925;0.99705982208252;-0.74853760004044
282;947272995;-6.455.264.282.226.560;-5.926.831.054.687.500;6.467.925.262.451.170;837.211.799.621.582;-453.079.652.786.255;218.075.156.211.853;0.06016783788800;107.085.430.622.101;-0.66039901971817
283;947281328;-6.451.400.756.835.930;-5.927.216.339.111.320;6.465.941.619.873.040;834.435.939.788.818;-453.214.931.488.037;217.006.945.610.046;153.857.028.484.344;0.90828073024750;-0.65071684122086
284;947289661;-6.447.529.602.050.780;-5.927.490.234.375.000;6.464.221.954.345.700;836.095.619.201.660;-457.178.449.630.737;204.063.963.890.076;204.865.217.208.862;0.74557918310165;-0.49966964125633
285;947297994;-6.444.001.007.080.070;-5.927.857.208.251.950;6.462.652.587.890.620;839.484.310.150.146;-456.764.030.456.543;200.059.604.644.775;165.670.311.450.958;0.64281487464905;-0.50860905647278
286;947306327;-6.441.956.329.345.700;-5.928.212.738.037.100;6.461.362.457.275.390;838.408.279.418.945;-453.372.240.066.528;202.783.823.013.306;0.29771426320076;0.46351516246796;-0.47664251923561
287;947314660;-6.441.912.078.857.420;-5.928.493.118.286.130;6.460.499.572.753.900;840.974.044.799.805;-459.319.829.940.796;206.213.593.482.971;-164.987.695.217.133;0.22192174196243;-0.19060833752155
288;947322993;-6.443.625.640.869.140;-5.928.725.814.819.330;6.459.871.673.583.980;846.609.878.540.039;-464.167.165.756.226;200.552.463.531.494;-352.768.206.596.375;0.16229178011417;-0.16727374494076
289;947331326;-6.446.684.265.136.710;-5.929.064.559.936.520;6.459.738.159.179.680;847.203.445.434.570;-456.567.239.761.353;205.028.533.935.547;-484.676.408.767.700;-0.09867884218693;-0.11097367852926
290;947339659;-6.451.294.708.251.950;-5.929.357.528.686.520;6.459.854.888.916.010;848.599.338.531.494;-454.259.824.752.808;200.932.645.797.729;-623.638.772.964.478;-0.28046309947968;-0.03551413863897
291;947347992;-6.456.613.159.179.680;-5.929.639.816.284.180;6.460.242.462.158.200;846.689.605.712.891;-462.422.227.859.497;210.432.791.709.900;-687.005.805.969.238;-0.42981964349747;0.11485422402620
292;947356325;-6.461.807.250.976.560;-5.929.994.201.660.150;6.460.913.085.937.500;848.922.348.022.461;-461.392.402.648.926;215.868.949.890.137;-636.594.438.552.856;-0.61859661340714;0.04469684138894
293;947364658;-6.465.167.236.328.120;-5.930.345.153.808.590;6.461.293.792.724.600;852.180.957.794.189;-457.300.901.412.964;209.370.470.046.997;-441.170.644.760.132;-0.51872670650482;0.07228337228298
294;947372991;-6.466.604.614.257.810;-5.930.422.592.163.080;6.461.769.104.003.900;853.374.481.201.172;-456.667.661.666.870;217.069.888.114.929;-205.724.549.293.518;-0.36878094077110;0.28823694586754
295;947381324;-6.466.683.959.960.930;-5.930.619.812.011.710;6.462.454.986.572.260;850.425.815.582.275;-465.726.613.998.413;223.650.813.102.722;-0.29298838973045;-0.53901314735413;0.27906706929207
296;947389657;-6.465.956.878.662.100;-5.930.774.307.250.970;6.463.226.318.359.370;852.341.365.814.209;-469.969.701.766.968;203.071.355.819.702;0.84350234270096;-0.57174807786942;0.28552189469337
297;947397990;-6.464.978.027.343.750;-5.930.825.424.194.330;6.463.813.781.738.280;855.181.789.398.193;-452.748.489.379.883;199.306.821.823.120;0.99772566556931;-0.46967536211014;0.43326476216316
298;947406323;-6.465.244.293.212.890;-5.930.738.830.566.400;6.464.673.614.501.950;855.550.098.419.189;-451.820.039.749.146;198.408.424.854.279;-0.25323513150215;-0.49636536836624;0.57073634862900
299;947414656;-6.467.087.554.931.640;-5.930.527.496.337.890;6.465.068.054.199.210;856.538.581.848.145;-467.107.248.306.274;192.365.550.994.873;-223.669.910.430.908;-0.40502509474754;0.74709039926529
300;947422989;-6.470.723.724.365.230;-5.930.154.800.415.030;6.465.852.355.957.030;856.535.530.090.332;-461.566.543.579.102;204.302.000.999.451;-437.874.078.750.610;-0.30643588304520;0.86197018623352
301;947431322;-6.476.131.439.208.980;-5.929.816.436.767.570;6.466.893.005.371.090;854.590.415.954.590;-454.917.049.407.959;204.540.586.471.558;-635.843.944.549.561;-0.44316467642784;0.94506287574768
302;947439655;-6.482.365.417.480.460;-5.929.415.512.084.960;6.467.873.382.568.350;855.147.743.225.098;-464.081.382.751.465;200.875.329.971.313;-729.084.873.199.463;-0.40389809012413;0.93976074457169
303;947447988;-6.487.856.292.724.600;-5.929.005.813.598.630;6.468.648.529.052.730;852.754.402.160.645;-464.105.033.874.512;214.539.527.893.066;-658.950.424.194.336;-0.32989850640297;0.98197287321091
304;947456321;-6.492.461.395.263.670;-5.928.535.842.895.500;6.469.779.205.322.260;850.802.230.834.961;-465.447.425.842.285;217.467.021.942.139;-518.548.631.668.091;-0.45284682512283;105.259.132.385.254
305;947464654;-6.495.217.895.507.810;-5.928.128.051.757.810;6.470.807.647.705.070;847.407.054.901.123;-456.419.610.977.173;200.049.400.329.590;-313.647.603.988.647;-0.42643862962723;101.703.882.217.407
306;947472987;-6.496.457.672.119.140;-5.927.456.283.569.330;6.471.569.824.218.750;840.970.706.939.697;-445.727.396.011.353;210.750.770.568.848;-152.674.937.248.230;-0.14562973380089;117.971.491.813.660
307;947481320;-6.497.805.023.193.350;-5.926.626.205.444.330;6.472.719.573.974.600;836.995.029.449.463;-460.276.699.066.162;222.595.739.364.624;-143.879.020.214.081;-0.22536687552929;149.346.363.544.464
308;947489653;-6.499.333.953.857.420;-5.925.726.699.829.100;6.473.989.105.224.600;834.823.799.133.301;-469.115.734.100.342;194.698.941.707.611;-134.929.394.721.985;-0.31340298056602;155.711.495.876.312
309;947497986;-6.500.781.250.000.000;-5.924.827.194.213.860;6.475.230.407.714.840;833.292.865.753.174;-441.946.506.500.244;195.844.733.715.057;-142.324.209.213.257;-0.26312220096588;160.355.365.276.337
310;947506319;-6.504.087.829.589.840;-5.923.720.169.067.380;6.476.834.869.384.760;831.561.565.399.170;-435.696.411.132.812;211.859.869.956.970;-313.639.926.910.400;-0.39703342318535;186.845.588.684.082
311;947514652;-6.508.935.546.875.000;-5.922.578.048.706.050;6.478.984.832.763.670;828.989.696.502.686;-456.976.842.880.249;192.465.162.277.222;-453.870.153.427.124;-0.65737658739090;209.783.148.765.564
312;947522985;-6.514.111.328.125.000;-5.921.385.955.810.540;6.481.025.695.800.780;829.724.311.828.613;-451.818.943.023.682;201.334.452.629.089;-493.200.826.644.897;-0.59997504949570;207.646.942.138.672
313;947531318;-6.520.572.662.353.510;-5.920.222.091.674.800;6.483.245.849.609.370;830.568.599.700.928;-433.169.651.031.494;206.443.667.411.804;-631.248.712.539.673;-0.73370695114136;215.169.787.406.921
314;947539651;-6.528.340.148.925.780;-5.919.123.840.332.030;6.485.858.917.236.320;829.360.771.179.199;-444.782.495.498.657;193.946.564.197.540;-745.042.657.852.173;-0.96974223852158;211.793.875.694.275
315;947547984;-6.535.995.483.398.430;-5.918.235.397.338.860;6.488.417.053.222.650;836.774.158.477.783;-463.469.028.472.900;205.465.340.614.319;-745.529.222.488.403;-103.131.878.376.007;191.586.804.389.954
316;947556317;-6.542.160.797.119.140;-5.917.710.113.525.390;6.490.800.476.074.210;838.890.075.683.594;-443.418.216.705.322;218.757.891.654.968;-576.529.121.398.926;-113.518.452.644.348;143.754.780.292.511
317;947564650;-6.546.622.467.041.010;-5.917.503.738.403.320;6.493.136.596.679.680;836.914.348.602.295;-436.153.841.018.677;216.994.214.057.922;-392.462.635.040.283;-122.219.610.214.233;111.004.412.174.225
318;947572983;-6.549.601.745.605.460;-5.917.581.558.227.530;6.495.491.790.771.480;839.845.180.511.475;-456.655.836.105.347;205.451.345.443.726;-197.202.694.416.046;-141.988.646.984.100;0.76781219244003
319;947581316;-6.551.116.180.419.920;-5.918.090.438.842.770;6.497.172.546.386.710;838.077.163.696.289;-440.638.732.910.156;197.862.660.884.857;-0.75637555122375;-136.750.543.117.523;0.22758246958256
320;947589649;-6.553.188.323.974.600;-5.918.753.814.697.260;6.499.188.995.361.320;839.536.571.502.686;-428.351.688.385.010;201.782.727.241.516;-123.175.013.065.338;-152.362.453.937.531;0.04067540913820
321;947597982;-6.556.031.036.376.950;-5.919.785.308.837.890;6.501.107.025.146.480;840.883.922.576.904;-442.882.156.372.070;193.651.485.443.115;-227.360.916.137.695;-167.444.109.916.687;-0.31491422653198
322;947606315;-6.559.539.794.921.870;-5.921.203.231.811.520;6.502.922.058.105.460;844.131.946.563.721;-444.040.918.350.220;190.981.590.747.833;-316.326.832.771.301;-178.578.591.346.741;-0.83982670307159
323;947614648;-6.563.600.921.630.850;-5.922.769.165.039.060;6.504.497.528.076.170;841.061.878.204.346;-422.692.871.093.750;191.244.530.677.795;-400.728.273.391.724;-178.258.442.878.723;-0.97693979740143
324;947622981;-6.568.968.963.623.040;-5.924.418.640.136.710;6.506.264.495.849.600;839.597.988.128.662;-424.704.885.482.788;193.321.084.976.196;-544.557.380.676.270;-186.949.348.449.707;-110.390.961.170.197
325;947631314;-6.575.389.099.121.090;-5.926.406.860.351.560;6.507.848.358.154.290;835.881.233.215.332;-433.481.740.951.538;187.853.264.808.655;-694.656.848.907.471;-193.345.236.778.259;-147.024.440.765.381
326;947639647;-6.582.965.850.830.070;-5.928.434.753.417.960;6.509.415.435.791.010;829.951.763.153.076;-434.032.011.032.104;195.325.732.231.140;-829.864.120.483.398;-193.829.333.782.196;-157.372.593.879.700
327;947647980;-6.591.330.718.994.140;-5.930.738.067.626.950;6.511.010.742.187.500;829.470.825.195.312;-426.868.009.567.261;200.435.018.539.429;-920.072.460.174.561;-211.833.596.229.553;-181.514.012.813.568
328;947656313;-6.599.295.043.945.310;-5.932.957.839.965.820;6.512.783.050.537.100;831.722.354.888.916;-421.569.681.167.603;195.787.596.702.576;-855.263.233.184.814;-214.261.794.090.271;-174.165.284.633.636
329;947664646;-6.605.371.856.689.450;-5.935.453.414.916.990;6.514.292.144.775.390;830.964.088.439.941;-427.616.834.640.503;204.428.339.004.517;-664.949.464.797.974;-209.871.530.532.837;-207.568.812.370.300
330;947672979;-6.608.856.201.171.870;-5.938.058.471.679.680;6.515.581.512.451.170;835.497.665.405.273;-434.726.905.822.754;206.580.734.252.930;-367.457.985.877.991;-205.430.030.822.754;-228.959.250.450.134
331;947681312;-6.608.872.222.900.390;-5.940.882.110.595.700;6.516.270.446.777.340;836.548.709.869.385;-427.252.912.521.362;202.298.355.102.539;-0.09424757212400;-185.732.650.756.836;-262.232.112.884.521
332;947689645;-6.606.173.706.054.680;-5.943.954.467.773.430;6.516.883.087.158.200;840.631.008.148.193;-427.634.811.401.367;200.732.111.930.847;304.545.593.261.719;-190.309.929.847.717;-296.711.468.696.594
333;947697978;-6.602.036.285.400.390;-5.947.270.584.106.440;6.517.456.817.626.950;837.776.374.816.895;-428.862.285.614.014;195.069.241.523.743;473.312.711.715.698;-202.164.220.809.937;-318.457.984.924.316
334;947706311;-6.597.479.248.046.870;-5.950.759.506.225.580;6.518.016.052.246.090;834.054.470.062.256;-421.973.371.505.737;185.683.321.952.820;522.212.743.759.155;-207.912.039.756.775;-343.746.852.874.756
335;947714644;-6.592.816.925.048.820;-5.954.640.960.693.350;6.518.331.909.179.680;834.587.383.270.264;-421.020.555.496.216;188.298.702.239.990;500.094.842.910.767;-211.546.659.469.604;-388.015.913.963.318
336;947722977;-6.588.840.484.619.140;-5.958.844.757.080.070;6.518.615.722.656.250;832.603.263.854.980;-415.046.215.057.373;184.083.306.789.398;424.379.158.020.020;-228.119.063.377.380;-428.681.087.493.896
337;947731310;-6.585.873.413.085.930;-5.963.523.483.276.360;6.519.133.758.544.920;832.531.070.709.229;-411.527.395.248.413;190.253.627.300.262;320.946.383.476.257;-263.584.613.800.049;-470.844.793.319.702
338;947739643;-6.584.024.047.851.560;-5.968.766.403.198.240;6.519.435.119.628.900;833.645.534.515.381;-406.985.235.214.233;185.718.512.535.095;170.713.746.547.699;-280.313.205.718.994;-541.875.505.447.388
339;947747976;-6.583.519.744.873.040;-5.974.570.083.618.160;6.519.946.289.062.500;834.878.730.773.926;-408.380.126.953.125;173.914.551.734.924;0.29666408896446;-320.635.175.704.956;-594.059.371.948.242
340;947756309;-6.584.749.603.271.480;-5.981.139.373.779.290;6.520.525.360.107.420;839.360.523.223.877;-412.389.755.249.023;173.711.693.286.896;-170.023.488.998.413;-361.074.972.152.710;-680.166.959.762.573
341;947764642;-6.588.326.263.427.730;-5.988.679.885.864.250;6.520.962.524.414.060;830.225.944.519.043;-395.584.559.440.613;175.057.601.928.711;-467.486.715.316.772;-401.204.776.763.916;-786.276.340.484.619
342;947772975;-6.597.083.282.470.700;-5.997.145.080.566.400;6.522.199.249.267.570;815.439.605.712.891;-387.209.343.910.217;196.427.226.066.589;-1.004.852.962.493.890;-488.759.374.618.530;-872.027.778.625.488
343;947781308;-6.610.930.633.544.920;-6.006.642.532.348.630;6.523.761.749.267.570;815.200.614.929.199;-408.235.645.294.189;138.150.465.488.434;-1.578.402.233.123.770;-557.641.267.776.489;-975.074.100.494.385
344;947789641;-6.629.611.968.994.140;-6.016.816.329.956.050;6.525.242.614.746.090;804.700.851.440.430;-333.547.353.744.507;135.213.625.431.061;-2.170.127.296.447.750;-580.079.460.144.043;-1.056.437.873.840.330
345;947797974;-6.656.678.771.972.650;-6.027.141.189.575.190;6.527.703.857.421.870;792.681.598.663.330;-289.103.937.149.048;159.203.195.571.899;-3.076.260.948.181.150;-636.185.169.219.971;-1.049.939.918.518.060
346;947806307;-6.693.070.220.947.260;-6.037.560.653.686.520;6.531.563.568.115.230;791.221.475.601.196;-334.380.626.678.467;124.432.456.493.378;-4.047.269.439.697.260;-710.794.830.322.266;-1.033.429.622.650.140
347;947814640;-6.736.113.739.013.670;-6.048.333.358.764.640;6.535.756.683.349.600;790.042.114.257.812;-340.334.844.589.233;132.270.348.072.052;-4.808.398.437.500.000;-738.323.068.618.774;-1.068.947.124.481.200
348;947822973;-6.785.467.529.296.870;-6.059.469.985.961.910;6.540.846.252.441.400;806.253.814.697.266;-304.516.696.929.932;163.757.812.976.837;-5.473.411.941.528.320;-793.191.862.106.323;-1.096.301.174.163.810
349;947831306;-6.838.329.315.185.540;-6.071.017.074.584.960;6.547.177.124.023.430;833.953.094.482.422;-319.328.308.105.469;154.549.205.303.192;-5.773.792.648.315.430;-863.892.650.604.248;-1.123.222.160.339.350
350;947839639;-6.885.516.357.421.870;-6.083.240.509.033.200;6.553.072.357.177.730;855.126.190.185.547;-349.340.176.582.336;170.496.106.147.766;-5.127.756.500.244.140;-862.847.232.818.604;-1.214.931.201.934.810
351;947847972;-6.917.816.162.109.370;-6.096.018.981.933.590;6.557.278.442.382.810;879.014.396.667.480;-322.847.652.435.303;212.792.396.545.410;-3.517.178.344.726.560;-785.275.745.391.846;-1.318.505.859.375.000
352;947856305;-6.930.925.750.732.420;-6.109.617.996.215.820;6.559.622.955.322.260;891.972.160.339.355;-323.302.388.191.223;209.460.449.218.750;-1.409.596.920.013.420;-712.382.221.221.924;-1.452.687.549.591.060
353;947864638;-6.924.338.531.494.140;-6.123.839.950.561.520;6.559.511.566.162.100;898.367.309.570.312;-336.485.219.001.770;188.423.180.580.139;693.308.305.740.356;-604.633.092.880.249;-1.569.129.753.112.790
354;947872971;-6.902.574.157.714.840;-6.138.432.312.011.710;6.557.659.912.109.370;900.365.543.365.479;-305.869.245.529.175;181.021.058.559.418;2.334.780.120.849.600;-530.605.649.948.120;-1.649.466.896.057.120
355;947881304;-6.872.048.187.255.850;-6.153.115.844.726.560;6.554.365.539.550.780;897.051.811.218.262;-309.950.757.026.672;141.386.055.946.350;3.231.042.480.468.750;-467.146.587.371.826;-1.678.002.166.748.040
356;947889637;-6.840.570.068.359.370;-6.167.279.815.673.820;6.550.579.071.044.920;922.281.932.830.811;-348.742.651.939.392;130.450.308.322.906;3.295.326.232.910.150;-426.571.035.385.132;-1.635.956.192.016.600
357;947897970;-6.819.239.807.128.900;-6.179.723.739.624.020;6.547.457.122.802.730;970.786.476.135.254;-453.277.015.686.035;143.669.486.045.837;2.144.092.178.344.720;-394.765.520.095.825;-1.421.108.150.482.170
358;947906303;-6.819.135.284.423.820;-6.187.685.775.756.830;6.545.910.644.531.250;1.081.787.776.947.020;-756.892.299.652.100;151.167.917.251.587;-233.318.781.852.722;-279.888.010.025.024;-894.657.802.581.787
359;947914636;-6.852.413.177.490.230;-6.185.581.970.214.840;6.546.414.184.570.310;1.185.400.772.094.720;-1.536.285.591.125.480;326.584.482.192.993;-4.025.373.840.332.030;0.60516273975372;272.548.651.695.251
360;947922969;-6.884.375.000.000.000;-6.181.349.945.068.350;6.542.471.313.476.560;916.620.159.149.170;-2.303.822.326.660.150;552.433.967.590.332;-4.334.963.989.257.810;386.306.881.904.602;417.008.161.544.800
361;947931302;-6.888.229.370.117.180;-6.183.799.362.182.610;6.535.427.856.445.310;787.185.573.577.881;-104.373.311.996.460;410.568.380.355.835;-1.290.315.818.786.620;259.856.438.636.780;-393.182.373.046.875
362;947939635;-6.886.255.645.751.950;-6.180.762.481.689.450;6.534.573.364.257.810;920.394.802.093.506;766.852.569.580.078;0.16904899477959;0.64158540964127;170.014.476.776.123;347.531.366.348.267
363;947947968;-6.874.867.248.535.150;-6.174.214.553.833.000;6.534.254.455.566.400;943.436.527.252.197;-669.393.682.479.858;0.34619030356407;1.251.109.790.802.000;294.174.456.596.375;751.209.402.084.351
364;947956301;-6.848.724.365.234.370;-6.172.674.179.077.140;6.529.368.591.308.590;762.587.165.832.520;-891.189.861.297.607;308.696.603.775.024;2.538.339.042.663.570;319.563.412.666.321;0.96012449264526
365;947964634;-6.827.393.341.064.450;-6.173.364.257.812.500;6.527.236.175.537.100;757.902.383.804.321;0.85796403884888;285.089.993.476.868;2.250.470.161.437.980;0.75377601385117;-0.94553703069687
366;947972967;-6.821.155.548.095.700;-6.171.449.661.254.880;6.529.679.107.666.010;889.974.212.646.484;0.53099799156189;-0.10247999429703;924.179.458.618.164;-0.50153952836990;290.119.624.137.878
367;947981300;-6.823.153.686.523.430;-6.169.055.557.250.970;6.530.595.397.949.210;888.896.369.934.082;-589.492.750.167.847;0.75319743156433;-226.379.871.368.408;0.51645982265472;311.558.747.291.565
368;947989633;-6.840.062.713.623.040;-6.168.634.033.203.120;6.532.014.465.332.030;858.218.669.891.357;-589.132.070.541.382;262.359.476.089.478;-1.961.675.643.920.890;-0.62866312265396;101.785.874.366.760
369;947997966;-6.872.065.734.863.280;-6.168.074.798.583.980;6.535.743.713.378.900;930.284.595.489.502;-374.797.105.789.185;122.957.623.004.913;-3.530.323.028.564.450;-179.708.409.309.387;167.112.576.961.517
370;948006299;-6.905.357.360.839.840;-6.166.492.843.627.930;6.538.411.712.646.480;944.032.955.169.678;-468.853.425.979.614;114.067.757.129.669;-3.795.776.748.657.220;-0.79805094003677;256.821.465.492.249
371;948014632;-6.935.859.680.175.780;-6.165.611.648.559.570;6.540.094.757.080.070;900.969.696.044.922;-534.936.332.702.637;222.063.302.993.774;-3.565.967.559.814.450;-0.58960181474686;159.917.509.555.817
372;948022965;-6.961.653.900.146.480;-6.165.784.072.875.970;6.541.831.207.275.390;900.483.894.348.145;-475.061.750.411.987;175.120.723.247.528;-2.994.635.391.235.350;-106.174.921.989.441;0.40224623680115
373;948031298;-6.981.454.467.773.430;-6.165.516.281.127.930;6.543.205.261.230.460;819.908.905.029.297;-306.653.404.235.840;184.130.370.616.913;-2.314.435.577.392.570;-0.68931782245636;0.83543431758881
374;948039631;-7.000.407.409.667.960;-6.165.077.590.942.380;6.546.440.887.451.170;861.827.278.137.207;-452.179.574.966.431;230.675.983.428.955;-2.015.086.746.215.820;-161.532.402.038.574;137.807.190.418.243
375;948047964;-7.010.133.361.816.400;-6.165.213.012.695.310;6.547.653.198.242.180;854.300.594.329.834;-480.015.802.383.423;113.922.894.001.007;-1.125.247.478.485.100;-0.77912110090256;0.38464897871017
376;948056297;-7.013.005.828.857.420;-6.165.155.410.766.600;6.547.976.684.570.310;845.706.558.227.539;-384.657.692.909.241;182.539.749.145.508;-393.051.695.823.669;-0.21486499905586;0.37693905830383
377;948064630;-7.014.002.990.722.650;-6.165.050.888.061.520;6.548.810.577.392.570;859.419.822.692.871;-467.214.345.932.007;146.852.838.993.073;-118.249.392.509.460;-0.48084318637848;0.60257488489151
378;948072963;-7.013.564.300.537.100;-6.165.105.819.702.140;6.548.690.032.958.980;869.957.351.684.570;-464.056.444.168.091;136.449.062.824.249;-0.42510667443275;-0.02339860610664;0.16426409780979
379;948081296;-7.016.862.487.792.960;-6.165.170.669.555.660;6.548.561.096.191.400;870.214.462.280.273;-399.400.854.110.718;111.549.472.808.838;-496.015.834.808.350;-0.03156954422593;0.21113815903664
380;948089629;-7.021.681.976.318.350;-6.164.960.861.206.050;6.547.628.021.240.230;867.271.423.339.844;-432.683.944.702.148;117.219.746.112.823;-759.309.768.676.758;0.52460515499115;0.30183818936348
381;948097962;-7.027.415.466.308.590;-6.164.984.893.798.820;6.546.274.566.650.390;867.219.161.987.305;-448.117.542.266.846;157.827.270.030.975;-918.307.590.484.619;0.63697487115860;0.04049610719085
382;948106295;-7.033.955.383.300.780;-6.165.004.730.224.600;6.545.083.618.164.060;861.029.338.836.670;-434.135.866.165.161;149.177.765.846.252;-993.036.937.713.623;0.56448656320572;0.00140878290404
383;948114628;-7.038.617.706.298.820;-6.164.938.354.492.180;6.543.181.610.107.420;854.357.719.421.387;-425.593.709.945.679;146.617.317.199.707;-847.502.040.863.037;0.96988290548325;0.03442552685738
384;948122961;-7.040.721.130.371.090;-6.164.709.472.656.250;6.541.100.311.279.290;852.311.134.338.379;-423.887.443.542.480;147.890.603.542.328;-555.107.879.638.672;114.562.225.341.797;0.11052543669939
385;948131294;-7.038.758.087.158.200;-6.164.366.531.372.070;6.538.649.749.755.850;857.342.815.399.170;-418.332.386.016.846;155.717.277.526.855;-109.881.234.169.006;137.940.347.194.672;0.23677800595760
386;948139627;-7.032.586.669.921.870;-6.163.799.285.888.670;6.535.852.813.720.700;862.176.227.569.580;-425.660.419.464.111;159.352.350.234.985;362.938.332.557.678;166.538.631.916.046;0.35211887955666
387;948147960;-7.022.505.187.988.280;-6.163.012.313.842.770;6.532.681.274.414.060;864.446.353.912.354;-424.369.382.858.276;157.108.831.405.640;788.570.213.317.871;194.509.398.937.225;0.59102296829224
388;948156293;-7.009.992.980.957.030;-6.162.067.031.860.350;6.529.128.265.380.850;864.228.248.596.191;-416.640.233.993.530;153.663.134.574.890;1.043.816.089.630.120;222.813.129.425.049;0.62834292650223
389;948164626;-6.996.417.236.328.120;-6.161.011.886.596.680;6.525.497.436.523.430;871.719.360.351.562;-427.018.928.527.832;155.474.793.910.980;1.158.560.180.664.060;230.451.321.601.868;0.80354428291321
390;948172959;-6.981.942.749.023.430;-6.159.592.437.744.140;6.521.800.231.933.590;870.965.957.641.602;-425.760.459.899.902;147.621.643.543.243;1.264.308.547.973.630;250.269.055.366.516;112.420.892.715.454
391;948181292;-6.966.854.095.458.980;-6.158.071.899.414.060;6.517.700.195.312.500;866.383.457.183.838;-418.769.311.904.907;171.800.291.538.239;1.290.734.767.913.810;275.125.074.386.597;122.456.538.677.216
392;948189625;-6.953.561.401.367.180;-6.156.611.633.300.780;6.514.614.105.224.600;869.936.943.054.199;-429.064.369.201.660;193.726.277.351.379;1.187.078.857.421.870;219.849.562.644.958;128.096.795.082.092
393;948197958;-6.941.790.771.484.370;-6.154.893.875.122.070;6.512.026.977.539.060;864.777.469.635.010;-410.266.542.434.692;164.758.050.441.742;1.052.184.295.654.290;203.320.717.811.584;173.323.857.784.271
394;948206291;-6.930.857.086.181.640;-6.152.885.818.481.440;6.509.730.529.785.150;872.150.802.612.305;-398.247.170.448.303;152.732.837.200.165;987.587.642.669.678;201.204.943.656.921;204.501.533.508.301
395;948214624;-6.920.519.256.591.790;-6.150.627.136.230.460;6.507.843.780.517.570;874.308.872.222.900;-403.133.726.119.995;171.784.114.837.646;954.266.071.319.580;189.396.798.610.687;247.917.652.130.127
396;948222957;-6.910.733.795.166.010;-6.148.197.555.541.990;6.506.737.518.310.540;870.914.649.963.379;-415.142.107.009.888;194.863.021.373.749;975.146.865.844.727;156.431.269.645.691;275.094.366.073.608
397;948231290;-6.901.122.283.935.540;-6.145.638.275.146.480;6.506.192.016.601.560;870.157.051.086.426;-420.318.555.831.909;200.450.849.533.081;1.008.619.499.206.540;131.554.722.785.950;307.294.034.957.886
398;948239623;-6.891.178.894.042.960;-6.142.819.595.336.910;6.506.369.018.554.680;868.166.255.950.928;-413.491.916.656.494;184.810.173.511.505;1.129.603.195.190.430;105.320.620.536.804;344.639.563.560.486
399;948247956;-6.880.094.146.728.510;-6.139.987.564.086.910;6.506.894.683.837.890;868.038.558.959.961;-413.095.808.029.175;182.715.499.401.093;1.298.377.990.722.650;0.87106335163116;359.585.475.921.631
400;948256289;-6.868.135.070.800.780;-6.136.945.343.017.570;6.507.766.723.632.810;870.202.350.616.455;-423.892.116.546.631;189.824.247.360.229;1.444.502.353.668.210;0.79158252477646;383.463.120.460.510
401;948264622;-6.855.837.249.755.850;-6.133.923.339.843.750;6.508.966.064.453.120;865.997.600.555.420;-421.390.676.498.413;190.150.713.920.593;1.514.764.881.134.030;0.60431683063507;395.414.733.886.719
402;948272955;-6.844.010.925.292.960;-6.130.756.759.643.550;6.510.991.668.701.170;862.137.794.494.629;-415.355.920.791.626;185.264.849.662.781;1.550.119.972.229.000;0.24192647635937;421.510.505.676.270
403;948281288;-6.832.019.805.908.200;-6.127.526.855.468.750;6.513.153.076.171.870;864.583.969.116.211;-426.789.188.385.010;180.268.895.626.068;1.579.015.445.709.220;0.19505243003368;438.953.828.811.646
404;948289621;-6.819.880.676.269.530;-6.124.443.054.199.210;6.515.438.079.833.980;865.876.674.652.100;-445.038.795.471.191;175.599.753.856.659;1.614.660.263.061.520;0.08309260755777;417.719.650.268.555
405;948297954;-6.807.272.338.867.180;-6.121.541.976.928.710;6.517.602.539.062.500;867.932.987.213.135;-453.836.059.570.312;180.194.544.792.175;1.653.755.378.723.140;0.05919450893998;402.433.013.916.016
406;948306287;-6.794.454.956.054.680;-6.118.805.313.110.350;6.519.716.644.287.100;866.053.390.502.930;-456.100.034.713.745;184.699.285.030.365;1.678.058.052.062.980;0.03178727254272;375.105.166.435.242
407;948314620;-6.780.890.655.517.570;-6.116.495.895.385.740;6.521.825.408.935.540;864.043.140.411.377;-460.338.592.529.297;190.668.904.781.342;1.761.911.582.946.770;-0.15674635767937;334.668.016.433.716
408;948322953;-6.765.687.561.035.150;-6.114.248.657.226.560;6.523.529.052.734.370;867.355.728.149.414;-460.802.602.767.944;181.666.648.387.909;1.921.178.627.014.160;0.04559335857630;311.517.882.347.107
409;948331286;-6.748.532.867.431.640;-6.112.413.024.902.340;6.524.569.702.148.430;865.357.017.517.090;-462.059.974.670.410;170.609.259.605.408;2.081.779.479.980.460;0.21060030162334;257.751.011.848.450
410;948339619;-6.730.702.209.472.650;-6.110.800.170.898.430;6.525.199.127.197.260;862.648.391.723.633;-452.099.800.109.863;169.424.104.690.552;2.123.769.187.927.240;0.34202700853348;217.928.552.627.563
411;948347952;-6.713.861.846.923.820;-6.109.475.326.538.080;6.525.667.572.021.480;858.772.373.199.463;-445.778.656.005.859;177.617.180.347.443;1.984.606.933.593.750;0.28790408372879;188.420.951.366.425
412;948356285;-6.699.237.823.486.320;-6.108.410.263.061.520;6.525.866.699.218.750;854.606.437.683.105;-447.946.739.196.777;168.675.613.403.320;1.693.533.897.399.900;0.32650470733643;147.056.460.380.554
413;948364618;-6.687.258.148.193.350;-6.107.717.895.507.810;6.525.588.226.318.350;859.763.431.549.072;-456.956.577.301.025;158.090.722.560.883;1.321.330.833.435.050;0.40152877569199;102.072.727.680.206
414;948372951;-6.679.028.320.312.500;-6.107.438.278.198.240;6.525.020.599.365.230;862.051.868.438.721;-469.528.484.344.482;161.288.094.520.569;845.433.616.638.184;0.37173938751221;0.42916649580002
415;948381284;-6.674.783.325.195.310;-6.107.801.818.847.650;6.523.831.176.757.810;866.077.232.360.840;-482.087.039.947.510;158.889.210.224.152;295.140.027.999.878;0.39896729588509;-0.35051798820496
416;948389617;-6.674.262.237.548.820;-6.108.761.978.149.410;6.522.029.113.769.530;869.254.112.243.652;-479.831.361.770.630;158.903.467.655.182;-209.226.059.913.635;0.44018062949181;-122.245.228.290.558
417;948397950;-6.676.023.101.806.640;-6.110.238.265.991.210;6.519.624.328.613.280;873.895.359.039.307;-482.282.447.814.941;167.888.605.594.635;-550.364.160.537.720;0.51858586072922;-187.640.917.301.178
418;948406283;-6.678.472.137.451.170;-6.112.372.589.111.320;6.516.529.846.191.400;869.832.515.716.553;-489.996.099.472.046;190.879.189.968.109;-701.516.294.479.370;0.57281118631363;-281.025.314.331.055
419;948414616;-6.681.613.159.179.680;-6.115.167.617.797.850;6.513.398.742.675.780;863.036.727.905.273;-471.881.246.566.772;202.392.745.018.005;-791.542.625.427.246;0.28060394525528;-350.980.329.513.550
420;948422949;-6.685.241.699.218.750;-6.118.367.385.864.250;6.509.808.349.609.370;882.005.500.793.457;-472.875.976.562.500;190.748.786.926.270;-895.308.494.567.871;0.33393278717995;-409.385.919.570.923
421;948431282;-6.688.740.539.550.780;-6.121.819.305.419.920;6.505.989.837.646.480;873.250.675.201.416;-462.833.166.122.437;145.913.398.265.839;-910.116.100.311.279;0.35583299398422;-439.989.852.905.273
422;948439615;-6.691.677.093.505.850;-6.125.173.187.255.850;6.501.674.652.099.600;872.032.260.894.775;-412.327.909.469.604;168.516.647.815.704;-888.979.148.864.746;0.64734858274460;-442.663.955.688.477
423;948447948;-6.696.360.015.869.140;-6.128.482.818.603.510;6.497.923.278.808.590;869.085.121.154.785;-378.453.826.904.297;218.758.320.808.411;-1.033.553.600.311.270;0.32937350869179;-419.931.316.375.732
424;948456281;-6.703.153.228.759.760;-6.131.416.320.800.780;6.494.768.524.169.920;868.937.778.472.900;-402.953.195.571.899;198.233.377.933.502;-1.229.677.009.582.520;0.23278224468231;-370.180.892.944.336
425;948464614;-6.710.628.509.521.480;-6.134.003.829.956.050;6.492.163.848.876.950;865.400.981.903.076;-396.443.724.632.263;171.534.502.506.256;-1.257.304.382.324.210;0.09625831246376;-312.418.174.743.652
426;948472947;-6.717.504.119.873.040;-6.136.315.917.968.750;6.489.976.501.464.840;862.161.636.352.539;-383.818.602.561.951;184.290.218.353.271;-1.137.895.774.841.300;0.01805803738534;-279.511.523.246.765
427;948481280;-6.723.029.327.392.570;-6.138.306.808.471.680;6.487.944.793.701.170;863.363.742.828.369;-409.479.093.551.636;192.712.759.971.619;-968.099.021.911.621;0.10217519104481;-234.819.793.701.172
428;948489613;-6.726.898.193.359.370;-6.140.162.658.691.400;6.485.736.083.984.370;854.973.030.090.332;-430.810.165.405.273;173.567.569.255.829;-779.550.170.898.438;0.24523071944714;-229.146.242.141.724
429;948497946;-6.729.353.332.519.530;-6.142.155.456.542.960;6.483.371.734.619.140;846.390.533.447.266;-429.840.707.778.931;165.827.631.950.378;-639.583.587.646.484;0.30206868052483;-244.163.846.969.604
430;948506279;-6.730.767.822.265.620;-6.144.104.766.845.700;6.480.499.267.578.120;853.547.954.559.326;-437.227.821.350.098;169.359.552.860.260;-554.526.472.091.675;0.55385667085648;-254.314.804.077.148
431;948514612;-6.731.819.152.832.030;-6.146.202.468.872.070;6.477.057.647.705.070;860.225.963.592.529;-446.249.294.281.006;168.522.846.698.761;-572.968.673.706.055;0.76555824279785;-276.950.073.242.188
432;948522945;-6.733.026.885.986.320;-6.148.486.328.125.000;6.473.274.993.896.480;862.348.937.988.281;-441.647.100.448.608;160.376.477.241.516;-626.223.278.045.654;0.88018196821213;-311.301.326.751.709
433;948531278;-6.734.925.079.345.700;-6.151.023.101.806.640;6.469.158.935.546.870;860.630.607.604.980;-439.183.712.005.615;164.786.529.541.016;-747.232.532.501.221;0.92183059453964;-339.310.479.164.124
434;948539611;-6.737.865.447.998.040;-6.153.636.550.903.320;6.464.923.858.642.570;863.251.495.361.328;-435.134.696.960.449;173.090.207.576.752;-882.150.554.656.982;0.96622025966644;-357.342.934.608.459
435;948547944;-6.741.175.842.285.150;-6.156.440.353.393.550;6.460.302.734.375.000;865.726.757.049.561;-437.605.190.277.100;173.202.157.020.569;-977.140.998.840.332;109.867.155.551.910;-381.825.089.454.651
436;948556277;-6.744.303.894.042.960;-6.159.238.052.368.160;6.455.579.376.220.700;869.582.557.678.223;-438.393.354.415.894;163.445.794.582.367;-956.413.936.614.990;113.842.475.414.276;-388.502.693.176.270
437;948564610;-6.746.035.766.601.560;-6.162.088.775.634.760;6.450.260.162.353.510;870.531.082.153.320;-437.832.927.703.857;163.341.879.844.666;-857.648.086.547.852;142.579.114.437.103;-400.541.400.909.424
438;948572943;-6.745.275.115.966.790;-6.164.652.252.197.260;6.444.195.556.640.620;866.830.253.601.074;-410.143.423.080.444;141.119.527.816.772;-631.622.791.290.283;195.024.251.937.866;-391.402.244.567.871
439;948581276;-6.740.787.506.103.510;-6.166.779.708.862.300;6.437.139.129.638.670;862.007.808.685.303;-386.766.362.190.247;147.536.313.533.783;-295.392.298.698.425;267.110.347.747.803;-359.361.314.773.560
440;948589609;-6.733.240.509.033.200;-6.168.184.661.865.230;6.429.362.487.792.960;866.043.758.392.334;-392.139.196.395.874;155.281.960.964.203;0.01857032068074;337.413.787.841.797;-301.096.630.096.436
441;948597942;-6.723.702.239.990.230;-6.169.115.829.467.770;6.421.015.167.236.320;864.926.052.093.506;-398.505.258.560.181;140.652.716.159.821;170.595.943.927.765;391.178.035.736.084;-257.452.511.787.415
442;948606275;-6.712.709.808.349.600;-6.169.380.187.988.280;6.412.115.478.515.620;864.148.139.953.613;-383.941.340.446.472;117.815.136.909.485;296.325.945.854.187;448.064.661.026.001;-200.396.800.041.199
443;948614608;-6.700.023.651.123.040;-6.168.957.901.000.970;6.402.387.237.548.820;855.845.260.620.117;-368.396.306.037.903;137.667.584.419.250;405.427.217.483.521;524.315.690.994.263;-139.706.432.819.366
444;948622941;-6.685.491.180.419.920;-6.167.559.051.513.670;6.392.083.740.234.370;868.697.261.810.303;-346.899.795.532.227;157.606.422.901.154;573.097.944.259.644;598.868.465.423.584;-0.50136023759842
445;948631274;-6.667.752.075.195.310;-6.165.345.382.690.430;6.381.034.088.134.760;859.305.477.142.334;-391.007.494.926.453;136.433.053.016.663;876.642.131.805.420;676.641.082.763.672;0.23475451767445
446;948639607;-6.645.307.922.363.280;-6.162.208.175.659.180;6.369.359.207.153.320;855.806.350.708.008;-381.817.030.906.677;156.608.378.887.177;1.377.974.414.825.430;753.950.023.651.123;106.027.591.228.485
447;948647940;-6.619.348.907.470.700;-6.158.162.689.208.980;6.357.389.831.542.960;855.535.411.834.717;-347.655.749.320.984;189.429.759.979.248;1.769.081.115.722.650;813.175.392.150.879;199.009.883.403.778
448;948656273;-6.592.251.586.914.060;-6.153.549.575.805.660;6.345.240.402.221.680;859.600.543.975.830;-396.699.023.246.765;188.251.006.603.241;1.887.462.615.966.790;852.777.671.813.965;249.078.059.196.472
449;948664606;-6.567.877.197.265.620;-6.148.612.976.074.210;6.333.137.893.676.750;869.727.993.011.475;-452.006.149.291.992;151.501.572.132.111;1.564.812.374.114.990;868.041.038.513.184;284.971.261.024.475
450;948672939;-6.548.369.598.388.670;-6.143.115.234.375.000;6.321.025.466.918.940;861.926.555.633.545;-373.168.969.154.358;133.335.399.627.686;981.489.086.151.123;898.698.711.395.264;338.755.989.074.707
451;948681272;-6.534.257.507.324.210;-6.137.004.089.355.460;6.309.302.520.751.950;862.252.426.147.461;-321.147.942.543.030;176.859.712.600.708;371.388.554.573.059;910.993.480.682.373;418.918.323.516.846
452;948689605;-6.526.332.092.285.150;-6.130.036.163.330.070;6.298.711.013.793.940;881.246.089.935.303;-357.862.496.376.038;202.742.505.073.547;-246.566.510.200.500;896.915.817.260.742;529.971.313.476.562
453;948697938;-6.521.874.237.060.540;-6.122.092.056.274.410;6.288.387.298.583.980;860.475.921.630.859;-352.791.452.407.837;127.534.759.044.647;-635.664.606.094.360;933.882.236.480.713;643.731.880.187.988
454;948706271;-6.518.405.914.306.640;-6.112.764.739.990.230;6.277.281.951.904.290;871.229.076.385.498;-332.295.727.729.797;0.99467301368713;-833.775.424.957.275;1.046.377.468.109.130;771.129.465.103.149
455;948714604;-6.515.725.708.007.810;-6.102.175.140.380.850;6.265.479.278.564.450;861.099.147.796.631;-363.845.276.832.581;108.053.576.946.259;-996.846.103.668.213;1.145.932.483.673.090;896.695.804.595.947
456;948722937;-6.513.033.294.677.730;-6.090.565.872.192.380;6.252.758.789.062.500;859.714.126.586.914;-386.024.665.832.520;127.828.872.203.827;-1.093.798.637.390.130;1.251.286.697.387.690;977.662.372.589.111
457;948731270;-6.510.808.563.232.420;-6.077.980.422.973.630;6.239.403.915.405.270;856.900.215.148.926;-374.715.185.165.405;158.040.380.477.905;-1.215.351.009.368.890;1.336.879.062.652.580;1.069.740.486.145.020
458;948739603;-6.509.790.039.062.500;-6.064.773.559.570.310;6.225.704.574.584.960;851.304.244.995.117;-390.737.485.885.620;178.198.993.206.024;-1.393.987.560.272.210;1.390.305.614.471.430;1.124.429.607.391.350
459;948747936;-6.510.443.115.234.370;-6.051.399.612.426.750;6.211.764.144.897.460;865.399.265.289.307;-454.675.769.805.908;179.901.075.363.159;-1.625.281.715.393.060;1.417.090.511.322.020;1.137.728.691.101.070
460;948756269;-6.512.889.862.060.540;-6.037.850.952.148.430;6.197.584.533.691.400;863.319.110.870.361;-455.048.418.045.044;170.661.890.506.744;-1.856.401.634.216.300;1.438.895.797.729.490;1.147.016.334.533.690
461;948764602;-6.517.146.301.269.530;-6.024.497.222.900.390;6.183.490.371.704.100;858.330.535.888.672;-434.965.848.922.729;214.348.077.774.048;-2.053.314.208.984.370;1.421.424.484.252.930;1.137.067.890.167.230
462;948772935;-6.525.593.566.894.530;-6.011.481.857.299.800;6.171.224.975.585.930;854.052.448.272.705;-433.985.471.725.464;318.476.128.578.186;-2.373.149.108.886.710;1.312.858.581.542.960;1.135.940.933.227.530
463;948781268;-6.537.129.974.365.230;-5.999.361.801.147.460;6.161.104.583.740.230;865.181.541.442.871;-480.063.629.150.391;340.074.133.872.986;-2.526.329.994.201.660;1.153.888.797.760.010;1.100.078.392.028.800
464;948789601;-6.548.744.201.660.150;-5.988.380.050.659.180;6.153.157.806.396.480;864.504.337.310.791;-518.720.197.677.612;322.157.573.699.951;-2.301.828.956.604.000;975.941.467.285.156;1.025.192.642.211.910
465;948797934;-6.557.614.135.742.180;-5.979.077.911.376.950;6.146.930.694.580.070;875.426.673.889.160;-560.704.803.466.797;338.410.091.400.146;-1.802.293.586.730.950;801.805.114.746.094;886.193.847.656.250
466;948806267;-6.564.221.954.345.700;-5.971.786.117.553.710;6.142.764.282.226.560;872.459.602.355.957;-571.041.488.647.461;376.809.263.229.370;-1.307.208.538.055.420;584.071.254.730.225;717.797.994.613.647
467;948814600;-6.570.286.560.058.590;-5.966.695.022.583.000;6.141.088.867.187.500;889.318.847.656.250;-542.752.695.083.618;383.507.966.995.239;-984.699.630.737.305;337.895.321.846.008;540.726.757.049.561
468;948822933;-6.580.435.180.664.060;-5.964.206.695.556.640;6.142.842.102.050.780;981.080.341.339.111;-625.898.551.940.918;440.307.855.606.079;-1.118.544.292.449.950;0.19121026992798;340.846.085.548.401
469;948831266;-6.598.499.298.095.700;-5.965.343.856.811.520;6.148.678.588.867.180;1.143.018.817.901.610;-721.709.775.924.683;449.854.993.820.190;-1.643.810.462.951.660;-386.000.156.402.588;0.45680433511734
470;948839599;-6.626.780.700.683.590;-5.970.980.834.960.930;6.158.053.588.867.180;1.418.297.767.639.160;-685.781.383.514.404;394.428.920.745.850;-2.505.341.529.846.190;-799.696.159.362.793;-363.651.943.206.787
471;948847932;-6.663.352.966.308.590;-5.981.776.046.752.930;6.170.430.374.145.500;1.728.945.922.851.560;-614.006.233.215.332;343.431.162.834.167;-3.188.525.581.359.860;-1.209.276.008.605.950;-864.041.996.002.197
472;948856265;-6.699.256.896.972.650;-5.998.468.780.517.570;6.183.927.154.541.010;1.968.866.920.471.190;-657.784.461.975.098;314.761.137.962.341;-2.989.419.174.194.330;-1.541.803.169.250.480;-1.496.665.763.854.980
473;948864598;-6.725.294.494.628.900;-6.021.988.677.978.510;6.195.475.387.573.240;2.149.938.392.639.160;-730.525.398.254.395;290.852.022.171.021;-2.006.158.828.735.350;-1.740.113.639.831.540;-2.307.141.876.220.700
474;948872931;-6.741.920.471.191.400;-6.052.544.784.545.890;6.204.076.766.967.770;2.321.170.043.945.310;-749.193.382.263.184;290.793.681.144.714;-1.180.398.941.040.030;-1.890.321.540.832.520;-3.162.164.497.375.480
475;948881264;-6.756.137.084.960.930;-6.090.139.007.568.350;6.210.181.427.001.950;2.489.282.989.501.950;-740.651.082.992.554;230.726.718.902.588;-1.149.211.883.544.920;-2.065.155.792.236.320;-4.004.810.333.251.950
476;948889597;-6.773.817.443.847.650;-6.134.585.189.819.330;6.212.897.872.924.800;2.579.526.138.305.660;-757.468.414.306.641;136.289.954.185.486;-1.918.620.681.762.690;-2.180.086.517.333.980;-4.848.262.405.395.500
477;948897930;-6.802.319.335.937.500;-6.184.497.833.251.950;6.212.307.739.257.810;2.489.495.468.139.640;-681.726.694.107.056;108.231.961.727.142;-3.564.774.703.979.490;-2.230.698.013.305.660;-5.536.984.634.399.410
478;948906263;-6.849.294.281.005.850;-6.238.314.437.866.210;6.210.122.680.664.060;2.345.733.451.843.260;-606.258.440.017.700;121.580.255.031.586;-5.951.354.980.468.750;-2.285.044.670.104.980;-6.019.300.460.815.430
479;948914596;-6.912.042.236.328.120;-6.294.354.629.516.600;6.206.904.983.520.500;2.182.530.593.872.070;-565.467.548.370.361;0.87218940258026;-7.955.592.346.191.400;-2.272.205.352.783.200;-6.309.672.927.856.440
480;948922929;-6.974.340.057.373.040;-6.351.156.616.210.930;6.200.803.756.713.860;1.994.453.048.706.050;-556.017.732.620.239;132.103.586.196.899;-8.212.332.153.320.310;-2.092.533.302.307.120;-6.472.616.577.148.430
481;948931262;-7.017.778.015.136.710;-6.407.636.260.986.320;6.188.238.906.860.350;1.795.862.388.610.840;-498.008.489.608.765;260.691.261.291.504;-6.354.359.436.035.150;-1.828.584.671.020.500;-6.527.480.316.162.100
482;948939595;-7.027.322.387.695.310;-6.462.393.951.416.010;6.173.438.644.409.180;1.571.655.178.070.060;-382.956.051.826.477;220.723.223.686.218;-2.829.144.668.579.100;-1.506.222.534.179.680;-6.418.817.138.671.870
483;948947928;-7.000.946.807.861.320;-6.513.973.999.023.430;6.150.819.015.502.930;1.346.638.298.034.660;-319.504.880.905.151;196.192.336.082.458;969.696.903.228.760;-1.165.266.036.987.300;-6.141.011.428.833.000
484;948956261;-6.955.221.557.617.180;-6.561.743.164.062.500;6.129.841.995.239.250;1.124.250.507.354.730;-317.099.928.855.896;178.276.336.193.085;3.116.375.541.687.010;-1.003.486.347.198.480;-5.716.485.595.703.120
485;948964594;-6.910.749.816.894.530;-6.605.525.207.519.530;6.107.661.056.518.550;951.609.325.408.936;-325.637.435.913.086;0.95997071266174;3.211.835.861.206.050;-990.432.739.257.812;-5.222.435.760.498.040
486;948972927;-6.877.228.546.142.570;-6.645.300.292.968.750;6.090.667.724.609.370;856.319.236.755.371;-275.908.994.674.683;-0.11076618731022;2.073.592.567.443.840;-955.376.148.223.877;-4.724.489.212.036.130
487;948981260;-6.855.128.479.003.900;-6.681.072.235.107.420;6.070.815.658.569.330;777.666.330.337.524;-255.710.148.811.340;-0.57698446512222;794.880.199.432.373;-840.034.389.495.850;-4.260.437.011.718.750
488;948989593;-6.836.188.507.080.070;-6.713.621.520.996.090;6.052.485.275.268.550;663.483.047.485.352;-341.883.492.469.788;-0.05621952563524;166.136.729.717.255;-640.657.758.712.769;-3.924.151.229.858.390
489;948997926;-6.813.153.839.111.320;-6.744.304.656.982.420;6.028.570.938.110.350;511.024.999.618.530;-430.771.589.279.175;0.67305898666382;422.504.758.834.839;-479.543.876.647.949;-3.752.268.600.463.860
490;949006259;-6.776.908.111.572.260;-6.773.469.543.457.030;6.003.895.568.847.650;355.684.733.390.808;-388.228.631.019.592;0.36024788022041;1.529.819.965.362.540;-274.066.305.160.522;-3.642.932.510.375.970
491;949014592;-6.724.983.215.332.030;-6.800.711.059.570.310;5.972.130.203.247.070;214.791.893.959.045;-302.012.348.175.049;0.36010771989822;2.965.014.266.967.770;-0.49254974722862;-3.497.477.340.698.240
492;949022925;-6.663.365.173.339.840;-6.825.807.952.880.850;5.941.660.308.837.890;0.85672253370285;-300.511.407.852.173;0.80611211061478;3.918.334.197.998.040;0.67045420408249;-3.279.576.110.839.840
493;949031258;-6.602.638.244.628.900;-6.848.967.742.919.920;5.910.839.080.810.540;-0.23678885400295;-302.606.916.427.612;107.791.626.453.400;4.073.777.008.056.640;0.24874038994312;-3.025.761.604.309.080
494;949039591;-6.549.996.185.302.730;-6.870.021.820.068.350;5.887.870.407.104.490;-0.85722303390503;-213.265.800.476.074;101.461.279.392.242;3.668.710.327.148.430;-126.400.065.422.058;-2.691.785.430.908.200
495;949047924;-6.508.503.723.144.530;-6.888.372.039.794.920;5.870.296.859.741.210;-0.83039778470993;-151.702.225.208.282;127.891.433.238.983;3.170.055.007.934.570;-310.389.852.523.804;-2.260.762.786.865.230
496;949056257;-6.476.190.185.546.870;-6.904.785.156.250.000;5.862.456.512.451.170;-0.20042735338211;-241.417.741.775.513;170.884.215.831.757;2.917.095.375.061.030;-535.293.245.315.552;-1.901.491.355.895.990
497;949064590;-6.448.764.038.085.930;-6.919.955.444.335.930;5.859.570.312.500.000;0.70676839351654;-276.963.019.371.033;165.824.365.615.845;3.084.597.778.320.310;-737.256.669.998.169;-1.644.987.678.527.830
498;949072923;-6.425.430.297.851.560;-6.934.179.687.500.000;5.864.820.480.346.680;191.678.869.724.274;-218.105.769.157.410;190.566.408.634.186;3.307.175.445.556.640;-945.995.140.075.684;-1.417.643.356.323.240
499;949081256;-6.410.014.343.261.710;-6.947.656.250.000.000;5.875.741.958.618.160;322.780.990.600.586;-217.944.669.723.511;146.214.306.354.523;3.168.146.324.157.710;-1.179.166.793.823.240;-1.205.149.841.308.590
500;949089589;-6.400.588.226.318.350;-6.960.369.110.107.420;5.891.963.577.270.500;426.767.539.978.027;-268.316.149.711.609;0.11961232125759;2.872.992.706.298.820;-1.285.772.991.180.420;-1.048.994.922.637.930
501;949097922;-6.399.236.297.607.420;-6.972.141.265.869.140;5.908.358.383.178.710;478.203.201.293.945;-229.827.547.073.364;0.04013933986425;2.089.413.261.413.570;-1.290.188.503.265.380;-922.250.080.108.643
502;949106255;-6.414.498.901.367.180;-6.982.668.304.443.350;5.929.327.774.047.850;501.735.925.674.438;-190.292.358.398.438;0.14297644793987;447.421.836.853.027;-1.341.267.871.856.680;-730.306.816.101.074
503;949114588;-6.445.829.772.949.210;-6.991.992.187.500.000;5.951.383.590.698.240;505.676.126.480.103;-238.352.656.364.441;-0.38278439640999;-1.202.856.254.577.630;-1.358.478.260.040.280;-567.351.627.349.854
504;949122921;-6.486.475.372.314.450;-7.000.057.220.458.980;5.975.151.443.481.440;476.931.953.430.176;-249.145.436.286.926;0.13718174397945;-2.280.509.376.525.870;-1.303.979.015.350.340;-431.463.003.158.569
505;949131254;-6.531.787.109.375.000;-7.006.844.329.833.980;5.999.137.496.948.240;418.761.682.510.376;-228.533.959.388.733;0.93897444009781;-2.665.097.808.837.890;-1.285.506.439.208.980;-280.249.404.907.227
506;949139587;-6.572.757.720.947.260;-7.012.265.014.648.430;6.025.534.820.556.640;349.027.657.508.850;-215.771.436.691.284;122.937.810.420.990;-2.020.373.725.891.110;-1.257.479.095.458.980;-120.167.958.736.420
507;949147920;-6.598.636.627.197.260;-7.016.293.334.960.930;6.050.180.435.180.660;272.661.042.213.440;-265.128.231.048.584;168.713.819.980.621;-271.499.395.370.483;-1.160.889.911.651.610;0.11277949810028
508;949156253;-6.607.205.200.195.310;-7.019.278.717.041.010;6.075.389.862.060.540;193.703.043.460.846;-326.299.309.730.530;205.943.083.763.123;1.735.329.055.786.130;-1.089.508.152.008.050;114.362.466.335.297
509;949164586;-6.602.562.713.623.040;-7.021.106.719.970.700;6.099.255.752.563.470;115.658.462.047.577;-276.647.210.121.155;148.963.451.385.498;3.305.932.998.657.220;-1.022.251.033.782.950;235.948.300.361.633
510;949172919;-6.595.323.181.152.340;-7.021.065.521.240.230;6.126.450.347.900.390;0.46383583545685;-230.425.572.395.325;133.962.571.620.941;3.857.547.378.540.030;-1.013.898.563.385.010;478.817.796.707.153
511;949181252;-6.597.991.180.419.920;-7.018.660.736.083.980;6.156.395.339.965.820;-0.08133553713560;-273.764.801.025.391;101.606.202.125.549;3.108.769.607.543.940;-1.039.502.239.227.290;800.901.603.698.730
512;949189585;-6.615.507.507.324.210;-7.013.780.975.341.790;6.190.227.127.075.190;-0.60743588209152;-269.957.423.210.144;0.16922070086002;1.635.080.337.524.410;-1.028.300.571.441.650;1.118.725.204.467.770
513;949197918;-6.652.914.428.710.930;-7.006.101.989.746.090;6.227.391.052.246.090;-104.196.596.145.630;-238.959.455.490.112;108.993.172.645.569;-248.892.307.281.494;-1.065.743.255.615.230;1.494.350.337.982.170
514;949206251;-6.707.476.043.701.170;-6.996.106.719.970.700;6.271.382.904.052.730;-125.589.382.648.468;-316.213.989.257.812;165.908.503.532.410;-1.668.646.621.704.100;-1.192.810.726.165.770;1.838.531.875.610.350
515;949214584;-6.760.573.577.880.850;-6.984.371.185.302.730;6.316.188.812.255.850;-128.830.373.287.201;-404.017.925.262.451;231.395.006.179.810;-1.269.405.174.255.370;-1.210.087.680.816.650;2.052.531.433.105.460
516;949222917;-6.795.549.774.169.920;-6.971.223.449.707.030;6.361.814.498.901.360;-134.317.111.968.994;-352.878.808.975.220;313.378.596.305.847;858.184.909.820.557;-1.161.873.912.811.270;2.201.334.571.838.370
517;949231250;-6.803.887.176.513.670;-6.956.262.969.970.700;6.405.381.774.902.340;-152.070.796.489.716;-331.352.925.300.598;312.362.813.949.585;3.952.484.130.859.370;-1.062.402.343.750.000;2.386.741.638.183.590
518;949239583;-6.786.561.584.472.650;-6.939.923.095.703.120;6.448.954.772.949.210;-149.967.503.547.668;-449.467.658.996.582;349.544.525.146.484;6.894.181.823.730.460;-969.094.944.000.244;2.530.885.887.145.990
519;949247916;-6.752.292.633.056.640;-6.922.888.946.533.200;6.490.490.722.656.250;-139.140.307.903.290;-481.425.380.706.787;287.169.384.956.360;8.838.687.133.789.060;-905.927.085.876.465;2.601.285.743.713.370
520;949256249;-6.712.682.342.529.290;-6.904.826.354.980.460;6.532.865.142.822.260;-105.115.485.191.345;-403.793.525.695.801;270.144.796.371.460;9.423.092.651.367.180;-841.766.643.524.170;2.723.054.885.864.250
521;949264582;-6.680.960.083.007.810;-6.885.070.037.841.790;6.574.540.710.449.210;-0.03510011360049;-425.782.823.562.622;176.761.782.169.342;8.545.991.516.113.280;-781.881.475.448.608;2.929.475.402.832.030
522;949272915;-6.658.535.003.662.100;-6.863.687.896.728.510;6.614.748.382.568.350;0.84669464826584;-462.499.237.060.547;0.73358458280563;7.105.609.130.859.370;-597.858.667.373.657;3.073.819.351.196.280
523;949281248;-6.648.699.188.232.420;-6.840.400.695.800.780;6.649.879.455.566.400;149.500.584.602.356;-453.960.180.282.593;161.236.500.740.051;5.193.733.596.801.750;-366.862.344.741.821;3.226.090.240.478.510
524;949289581;-6.653.048.706.054.680;-6.815.190.124.511.710;6.683.837.127.685.540;180.751.502.513.885;-433.421.707.153.320;153.390.049.934.387;3.181.511.688.232.420;-183.635.210.990.906;3.401.044.082.641.600
525;949297914;-6.665.121.459.960.930;-6.787.756.347.656.250;6.712.128.448.486.320;238.815.450.668.335;-507.471.609.115.601;178.449.606.895.447;1.810.821.342.468.260;0.69281476736069;3.576.842.880.249.020
526;949306247;-6.677.275.085.449.210;-6.758.829.498.291.010;6.736.864.471.435.540;326.718.926.429.749;-564.415.740.966.797;238.696.599.006.653;1.206.191.253.662.100;332.998.299.598.694;3.658.444.595.336.910
527;949314580;-6.686.060.333.251.950;-6.728.260.040.283.200;6.755.277.252.197.260;417.327.690.124.512;-558.355.045.318.604;279.751.753.807.068;1.118.037.223.815.910;583.029.413.223.267;3.760.256.958.007.810
528;949322913;-6.686.353.302.001.950;-6.695.694.732.666.010;6.770.288.848.876.950;505.962.371.826.172;-542.435.693.740.845;256.888.604.164.124;1.542.522.430.419.920;885.126.876.831.055;3.894.171.524.047.850
529;949331246;-6.675.445.556.640.620;-6.660.616.302.490.230;6.777.179.718.017.570;580.840.969.085.693;-570.640.850.067.139;223.255.085.945.129;2.226.849.746.704.100;1.264.121.341.705.320;4.057.351.684.570.310
530;949339579;-6.658.706.665.039.060;-6.622.974.395.751.950;6.781.257.629.394.530;644.317.293.167.114;-590.947.294.235.229;262.927.961.349.487;2.375.088.119.506.830;1.602.663.421.630.850;4.250.600.433.349.600
531;949347912;-6.643.560.791.015.620;-6.582.448.577.880.850;6.780.187.225.341.790;659.472.656.250.000;-569.634.151.458.740;209.769.153.594.971;1.842.672.157.287.590;1.894.904.708.862.300;4.498.451.995.849.600
532;949356245;-6.633.314.514.160.150;-6.538.488.769.531.250;6.777.713.012.695.310;640.609.455.108.643;-561.756.086.349.487;161.668.288.707.733;876.859.569.549.561;2.219.253.730.773.920;4.809.162.139.892.570
533;949364578;-6.635.608.673.095.700;-6.490.680.694.580.070;6.774.453.735.351.560;572.668.600.082.397;-553.387.022.018.433;212.163.114.547.729;-712.570.858.001.709;2.445.326.042.175.290;5.214.468.765.258.780
534;949372911;-6.653.086.853.027.340;-6.438.844.299.316.400;6.773.152.160.644.530;570.633.792.877.197;-565.893.507.003.784;289.608.883.857.727;-2.320.782.852.172.850;2.540.847.206.115.720;5.700.237.274.169.920
535;949381244;-6.673.313.140.869.140;-6.383.109.664.916.990;6.774.250.793.457.030;736.563.253.402.710;-574.819.707.870.483;382.235.026.359.558;-2.390.859.985.351.560;2.593.401.908.874.510;6.187.372.207.641.600
536;949389577;-6.672.717.285.156.250;-6.324.243.545.532.220;6.774.873.352.050.780;989.258.670.806.885;-583.439.493.179.321;471.938.323.974.609;0.56023699045181;2.753.642.272.949.210;6.527.917.480.468.750
537;949397910;-6.636.871.337.890.620;-6.263.272.476.196.280;6.774.301.910.400.390;1.294.148.921.966.550;-651.200.103.759.766;546.466.684.341.431;4.157.520.675.659.180;2.932.945.442.199.700;6.724.665.069.580.070
538;949406243;-6.567.272.949.218.750;-6.201.604.843.139.640;6.773.238.372.802.730;1.634.923.362.731.930;-709.178.686.141.968;539.176.845.550.537;8.156.822.967.529.290;3.055.321.502.685.540;6.762.650.299.072.260
539;949414576;-6.472.264.099.121.090;-6.140.073.013.305.660;6.770.383.453.369.140;1.961.947.441.101.070;-712.703.037.261.963;369.640.421.867.371;11.017.855.834.960.900;3.238.209.915.161.130;6.660.189.056.396.480
540;949422909;-6.365.591.430.664.060;-6.078.522.109.985.350;6.765.059.661.865.230;2.205.926.704.406.730;-652.572.250.366.211;240.942.764.282.227;12.159.439.086.914.000;3.487.701.416.015.620;6.540.520.477.294.920
541;949431242;-6.265.748.596.191.400;-6.016.824.340.820.310;6.759.589.385.986.320;2.353.994.560.241.690;-570.321.464.538.574;269.904.208.183.289;11.328.070.068.359.300;3.625.787.353.515.620;6.485.047.912.597.650
542;949439575;-6.180.012.512.207.030;-5.955.694.198.608.390;6.754.118.347.167.960;2.475.833.320.617.670;-678.893.947.601.318;264.431.762.695.312;9.638.687.133.789.060;3.703.318.023.681.640;6.362.166.976.928.710
543;949447908;-6.101.698.303.222.650;-5.896.586.227.416.990;6.746.135.711.669.920;2.565.235.519.409.180;-766.782.331.466.675;261.760.425.567.627;8.492.812.347.412.100;3.817.945.861.816.400;6.019.428.634.643.550
544;949456241;-6.027.313.995.361.320;-5.840.584.945.678.710;6.735.355.377.197.260;2.601.500.320.434.570;-725.866.937.637.329;379.070.901.870.728;7.739.054.107.666.010;3.873.850.631.713.860;5.552.792.739.868.160
545;949464574;-5.956.068.420.410.150;-5.788.233.566.284.180;6.722.599.792.480.460;2.572.904.586.791.990;-728.596.782.684.326;352.672.123.908.997;7.167.399.597.167.960;3.841.943.359.375.000;5.056.142.044.067.380
546;949472907;-5.882.211.685.180.660;-5.740.261.840.820.310;6.706.626.892.089.840;2.483.524.322.509.760;-815.090.084.075.928;365.034.294.128.418;7.161.735.534.667.960;3.823.176.193.237.300;4.444.082.641.601.560
547;949481240;-5.802.343.368.530.270;-5.697.224.807.739.250;6.687.175.750.732.420;2.328.103.065.490.720;-811.152.839.660.645;440.918.731.689.453;7.540.521.240.234.370;3.775.420.761.108.390;3.762.672.042.846.680
548;949489573;-5.715.480.804.443.350;-5.658.899.688.720.700;6.664.773.559.570.310;2.122.567.939.758.300;-764.304.637.908.936;450.664.091.110.229;8.092.698.669.433.590;3.702.184.677.124.020;3.118.751.907.348.630
549;949497906;-5.622.422.409.057.610;-5.624.049.377.441.400;6.639.933.776.855.460;1.887.502.098.083.490;-700.254.106.521.606;375.881.934.165.955;8.601.953.887.939.450;3.668.276.214.599.600;2.614.039.039.611.810
550;949506239;-5.530.604.171.752.930;-5.591.719.436.645.500;6.613.906.860.351.560;1.631.924.629.211.420;-626.334.095.001.221;361.968.851.089.478;8.344.752.502.441.400;3.617.301.177.978.510;2.252.100.563.049.310
551;949514572;-5.452.909.851.074.210;-5.561.119.461.059.570;6.589.420.318.603.510;1.387.614.727.020.260;-571.921.443.939.209;364.720.702.171.326;6.811.996.459.960.930;3.456.821.441.650.390;2.079.464.530.944.820
552;949522905;-5.396.763.229.370.110;-5.531.689.453.125.000;6.567.733.764.648.430;1.186.876.392.364.500;-548.127.555.847.168;314.339.709.281.921;4.511.911.773.681.640;3.254.625.320.434.570;2.029.249.954.223.630
553;949531238;-5.362.932.968.139.640;-5.502.680.587.768.550;6.549.343.872.070.310;1.021.394.634.246.820;-490.457.296.371.460;310.519.051.551.819;2.166.132.736.206.050;3.066.405.677.795.410;2.089.986.610.412.590
554;949539571;-5.350.950.622.558.590;-5.474.008.560.180.660;6.535.220.336.914.060;873.661.613.464.355;-444.928.455.352.783;394.192.743.301.392;-0.30702534317970;2.821.293.258.666.990;2.214.079.093.933.100
555;949547904;-5.358.381.271.362.300;-5.445.785.522.460.930;6.526.031.494.140.620;742.179.727.554.321;-468.085.193.634.033;414.073.562.622.070;-1.872.698.974.609.370;2.519.768.142.700.190;2.369.970.703.125.000
556;949556237;-5.378.776.168.823.240;-5.418.089.294.433.590;6.521.035.003.662.100;648.548.698.425.293;-471.907.901.763.916;389.388.847.351.074;-3.016.561.698.913.570;2.243.559.837.341.300;2.496.054.840.087.890
557;949564570;-5.407.136.154.174.800;-5.390.677.261.352.530;6.519.904.327.392.570;591.675.758.361.816;-413.903.045.654.297;414.157.199.859.619;-3.597.632.980.346.680;1.995.079.040.527.340;2.639.680.290.222.160
558;949572903;-5.440.884.780.883.780;-5.363.221.359.252.930;6.523.001.861.572.260;549.549.055.099.487;-393.055.295.944.214;402.522.420.883.179;-3.832.322.311.401.360;1.740.578.269.958.490;2.826.893.234.252.930
559;949581236;-5.475.782.394.409.180;-5.335.723.876.953.120;6.528.958.129.882.810;509.686.994.552.612;-405.735.921.859.741;358.908.319.473.267;-3.695.774.459.838.860;1.559.221.172.332.760;2.961.116.600.036.620
560;949589569;-5.511.387.252.807.610;-5.308.221.817.016.600;6.537.058.258.056.640;494.654.512.405.396;-403.049.659.729.004;339.143.824.577.332;-3.576.285.934.448.240;1.413.181.209.564.200;3.060.648.727.416.990
561;949597902;-5.549.295.806.884.760;-5.280.602.264.404.290;6.547.160.339.355.460;504.103.946.685.791;-361.346.960.067.749;300.427.126.884.460;-3.663.995.361.328.120;1.279.651.641.845.700;3.166.003.036.499.020
562;949606235;-5.589.843.750.000.000;-5.252.822.494.506.830;6.558.451.080.322.260;518.002.748.489.380;-356.712.722.778.320;253.468.275.070.190;-3.870.844.268.798.820;1.193.608.283.996.580;3.242.055.130.004.880
563;949614568;-5.632.412.719.726.560;-5.225.410.461.425.780;6.570.420.837.402.340;527.920.627.593.994;-423.696.947.097.778;262.996.101.379.395;-4.052.710.342.407.220;1.100.036.621.093.750;3.244.642.257.690.430
564;949622901;-5.668.670.654.296.870;-5.199.522.018.432.610;6.581.414.794.921.870;554.332.542.419.434;-548.413.562.774.658;309.829.688.072.205;-3.391.719.055.175.780;1.032.588.481.903.070;3.062.422.943.115.230
565;949631234;-5.684.022.521.972.650;-5.175.365.447.998.040;6.589.904.022.216.790;590.117.502.212.524;-452.017.641.067.505;359.810.113.906.860;-1.123.237.800.598.140;1.056.593.418.121.330;2.794.828.224.182.120
566;949639567;-5.670.255.279.541.010;-5.152.532.958.984.370;6.595.887.756.347.650;606.546.401.977.539;-371.555.399.894.714;391.799.402.236.938;2.133.178.520.202.630;1.122.014.713.287.350;2.561.208.534.240.720
567;949647900;-5.628.498.458.862.300;-5.131.066.131.591.790;6.599.810.791.015.620;588.167.428.970.337;-503.186.082.839.966;373.593.664.169.312;5.296.648.406.982.420;1.170.689.392.089.840;2.335.062.408.447.260
568;949656233;-5.566.259.765.625.000;-5.110.750.579.833.980;6.601.264.190.673.820;552.384.233.474.731;-452.371.358.871.460;276.179.909.706.116;7.522.725.677.490.230;1.267.255.783.081.050;2.106.687.545.776.360
569;949664566;-5.498.907.089.233.390;-5.090.658.187.866.210;6.601.757.049.560.540;540.727.424.621.582;-273.606.038.093.567;211.292.648.315.430;8.046.181.488.037.100;1.334.661.102.294.920;2.029.200.363.159.180
570;949672899;-5.447.024.536.132.810;-5.070.275.497.436.520;6.603.952.026.367.180;532.823.181.152.344;-304.719.161.987.305;181.012.856.960.297;6.348.252.487.182.610;1.269.987.010.955.810;2.118.226.432.800.290
571;949681232;-5.422.439.956.665.030;-5.050.193.405.151.360;6.608.002.471.923.820;522.284.793.853.760;-400.080.108.642.578;123.824.000.358.582;3.243.614.196.777.340;1.147.593.498.229.980;2.163.130.187.988.280
572;949689565;-5.428.585.052.490.230;-5.030.485.534.667.960;6.613.509.368.896.480;525.063.753.128.052;-311.992.025.375.366;140.924.251.079.559;-310.374.307.632.446;1.033.045.768.737.790;2.190.556.335.449.210
573;949697898;-5.466.484.451.293.940;-5.010.871.124.267.570;6.621.292.877.197.260;555.965.042.114.258;-260.931.277.275.085;174.002.063.274.384;-3.912.547.302.246.090;874.802.112.579.346;2.288.147.163.391.110
574;949706231;-5.529.256.820.678.710;-4.991.244.888.305.660;6.630.475.616.455.070;588.276.720.046.997;-362.106.752.395.630;124.574.768.543.243;-6.770.791.625.976.560;765.203.189.849.854;2.360.470.199.584.960
575;949714564;-5.604.283.142.089.840;-4.971.959.686.279.290;6.639.485.931.396.480;607.671.833.038.330;-371.464.490.890.503;192.014.324.665.070;-8.259.501.647.949.210;722.472.238.540.649;2.329.440.498.352.050
576;949722897;-5.680.029.678.344.720;-4.953.326.416.015.620;6.648.134.613.037.100;652.947.759.628.296;-346.852.970.123.291;338.100.290.298.462;-8.381.371.307.373.040;670.195.817.947.388;2.259.874.153.137.200
577;949731230;-5.741.925.811.767.570;-4.936.064.910.888.670;6.655.647.277.832.030;713.531.637.191.772;-467.217.206.954.956;332.439.565.658.569;-6.825.172.424.316.400;626.104.354.858.398;2.082.948.684.692.380
578;949739563;-5.771.221.160.888.670;-4.920.063.400.268.550;6.658.403.015.136.710;730.447.244.644.165;-480.328.655.242.920;230.598.044.395.447;-3.346.989.440.917.960;841.146.945.953.369;1.761.547.088.623.040
579;949747896;-5.767.301.940.917.960;-4.905.546.569.824.210;6.657.524.871.826.170;740.037.298.202.515;-380.543.422.698.975;488.514.184.951.782;308.047.103.881.836;983.105.278.015.137;1.460.452.365.875.240
580;949756229;-5.738.964.080.810.540;-4.892.802.810.668.940;6.655.099.487.304.680;754.558.563.232.422;-472.073.554.992.676;324.119.043.350.220;3.098.862.266.540.520;975.565.242.767.334;1.212.781.429.290.770
581;949764562;-5.686.789.321.899.410;-4.881.178.665.161.130;6.648.723.602.294.920;747.514.486.312.866;-453.760.862.350.464;190.862.333.774.567;5.601.570.510.864.250;1.173.373.699.188.230;924.154.090.881.348
582;949772895;-5.630.000.305.175.780;-4.870.457.839.965.820;6.641.143.035.888.670;740.880.537.033.081;-347.063.350.677.490;316.375.136.375.427;6.048.793.792.724.600;1.202.448.940.277.100;768.713.998.794.556
