DeviceTag:;A5;;;;;;;;;
FirmwareVersion:;3.0.0;;;;;;;;;
AppVersion:;2023.6.0;;;;;;;;;
StartTime: ;2026-05-28_17:21:03_000 CEST;;;;;;;;;
© Movella Technologies B. V. 2005-2026;;;;;;;;;;
;;;;;;;;;;
PacketCounter;SampleTimeFine;Euler_X;Euler_Y;Euler_Z;ax;ay;az;Gyr_X;Gyr_Y;Gyr_Z
0;1610196477;6.126.126.480.102.530;-7.688.647.460.937.500;-10.030.432.891.845.700;0.00000000000000;0.00000000000000;0.00000000000000;0.00000000000000;0.00000000000000;0.00000000000000
1;1610204810;6.133.698.272.705.070;-7.691.869.354.248.040;-10.057.326.507.568.300;921.792.602.539.062;182.650.804.519.653;125.940.680.503.845;-2.337.781.715.393.060;-842.621.707.916.260;-0.87961894273758
2;1610213143;6.143.433.380.126.950;-7.696.447.753.906.250;-10.086.126.708.984.300;919.674.682.617.188;163.231.122.493.744;117.555.451.393.127;-2.298.457.336.425.780;-978.309.440.612.793;0.33644315600395
3;1610221476;6.151.456.832.885.740;-7.702.192.687.988.280;-10.112.327.575.683.500;934.184.265.136.719;148.518.741.130.829;119.025.993.347.168;-2.202.298.736.572.260;-970.571.041.107.178;192.470.550.537.109
4;1610229809;6.153.637.313.842.770;-7.708.674.621.582.030;-10.131.710.052.490.200;950.138.664.245.605;143.021.881.580.353;119.560.265.541.077;-2.105.246.543.884.270;-858.516.502.380.371;360.979.008.674.622
5;1610238142;6.149.270.629.882.810;-7.715.888.977.050.780;-10.143.720.245.361.300;970.457.077.026.367;141.529.417.037.964;114.951.241.016.388;-2.009.464.645.385.740;-714.426.136.016.846;535.611.772.537.231
6;1610246475;6.136.761.093.139.640;-7.723.668.670.654.290;-10.147.494.506.835.900;992.835.617.065.430;148.279.798.030.853;117.691.075.801.849;-2.042.839.622.497.550;-564.119.148.254.395;697.457.885.742.188
7;1610254808;6.116.407.012.939.450;-7.732.023.620.605.460;-10.143.717.956.542.900;1.016.782.093.048.090;160.253.500.938.416;124.162.185.192.108;-2.113.563.537.597.650;-412.311.267.852.783;848.594.856.262.207
8;1610263141;6.088.149.261.474.600;-7.740.544.891.357.420;-10.133.058.929.443.300;1.030.195.045.471.190;173.237.764.835.358;127.213.430.404.663;-2.242.997.360.229.490;-280.239.081.382.751;956.254.100.799.561
9;1610271474;6.054.816.055.297.850;-7.749.299.621.582.030;-10.118.295.288.085.900;1.027.321.815.490.720;187.059.557.437.897;144.766.759.872.437;-2.365.518.188.476.560;-201.436.853.408.813;1.029.605.770.111.080
10;1610279807;6.019.068.145.751.950;-7.758.184.051.513.670;-10.101.967.620.849.600;1.020.821.285.247.800;200.064.516.067.505;156.259.942.054.749;-2.476.885.604.858.390;-188.874.387.741.089;1.060.948.848.724.360
11;1610288140;5.979.872.894.287.100;-7.766.799.926.757.810;-10.083.360.290.527.300;1.009.925.746.917.720;205.944.418.907.166;173.822.557.926.178;-2.616.427.993.774.410;-129.122.722.148.895;1.061.523.723.602.290
12;1610296473;5.935.898.208.618.160;-7.774.811.553.955.070;-10.061.492.919.921.800;992.526.531.219.482;207.996.654.510.498;186.435.317.993.164;-2.813.677.215.576.170;-0.34292367100716;1.037.381.172.180.170
13;1610304806;5.888.605.880.737.300;-7.782.230.377.197.260;-10.038.359.069.824.200;971.392.154.693.604;206.903.553.009.033;192.825.317.382.812;-3.063.220.787.048.340;0.19771644473076;990.590.476.989.746
14;1610313139;5.838.600.158.691.400;-7.789.295.959.472.650;-10.013.813.781.738.200;957.170.677.185.059;199.466.598.033.905;183.705.961.704.254;-3.221.808.624.267.570;0.58185344934464;972.391.605.377.197
15;1610321472;5.784.670.257.568.350;-7.795.520.019.531.250;-9.985.827.636.718.750;944.505.882.263.184;194.319.522.380.829;165.084.278.583.527;-3.372.060.012.817.380;162.222.814.559.937;920.215.415.954.590
16;1610329805;5.723.712.539.672.850;-7.800.502.014.160.150;-9.953.035.736.083.980;936.673.736.572.266;187.428.367.137.909;155.060.791.969.299;-3.566.833.877.563.470;341.263.961.791.992;870.047.473.907.471
17;1610338138;5.656.844.711.303.710;-7.804.586.029.052.730;-9.915.993.499.755.850;939.483.642.578.125;176.868.522.167.206;151.604.044.437.408;-3.806.310.653.686.520;481.134.557.723.999;835.561.752.319.336
18;1610346471;5.579.907.226.562.500;-7.807.569.885.253.900;-9.871.656.799.316.400;932.958.126.068.115;172.808.396.816.254;157.874.250.411.987;-4.127.846.145.629.880;685.970.735.549.927;835.629.653.930.664
19;1610354804;5.497.512.817.382.810;-7.809.921.264.648.430;-9.825.321.197.509.760;913.838.291.168.213;177.998.220.920.563;166.909.325.122.833;-4.526.974.868.774.410;767.867.565.155.029;811.263.370.513.916
20;1610363137;5.416.949.462.890.620;-7.812.010.192.871.090;-9.783.743.286.132.810;892.686.557.769.775;178.529.942.035.675;148.770.403.862.000;-4.885.979.080.200.190;663.164.281.845.093;725.845.003.128.052
21;1610371470;5.345.342.254.638.670;-7.813.964.080.810.540;-9.752.346.038.818.350;885.868.835.449.219;167.576.777.935.028;112.696.540.355.682;-5.006.222.915.649.410;463.278.055.191.040;572.213.077.545.166
22;1610379803;5.283.402.252.197.260;-7.815.390.777.587.890;-9.731.350.708.007.810;892.038.631.439.209;148.749.792.575.836;101.812.958.717.346;-5.067.853.164.672.850;281.985.187.530.518;372.967.171.669.006
23;1610388136;5.232.758.712.768.550;-7.816.320.037.841.790;-9.721.033.477.783.200;901.532.554.626.465;119.525.659.084.320;0.83164572715759;-4.968.171.691.894.530;106.112.313.270.569;167.904.222.011.566
24;1610396469;5.193.468.856.811.520;-7.816.355.895.996.090;-9.720.286.560.058.590;902.296.733.856.201;0.85384440422058;0.62443733215332;-4.727.612.304.687.500;-0.17564997076988;-0.59705626964569
25;1610404802;5.167.530.822.753.900;-7.815.497.589.111.320;-9.731.667.327.880.850;901.137.447.357.178;0.44842961430550;0.42719966173172;-4.548.029.327.392.570;-185.248.887.538.910;-327.262.163.162.231
26;1610413135;5.156.378.173.828.120;-7.814.254.760.742.180;-9.754.440.307.617.180;906.171.607.971.191;0.12734396755695;0.15807546675205;-4.113.287.353.515.620;-377.330.303.192.139;-539.279.031.753.540
27;1610421468;5.157.600.021.362.300;-7.812.598.419.189.450;-9.784.960.174.560.540;922.340.202.331.543;-0.05188147351146;0.03152802214026;-3.537.933.349.609.370;-494.484.615.325.928;-698.714.828.491.211
28;1610429801;5.169.362.258.911.130;-7.810.072.326.660.150;-9.821.524.047.851.560;949.740.028.381.348;-0.16699543595314;-0.00783156324178;-2.982.243.728.637.690;-550.023.937.225.342;-873.506.450.653.076
29;1610438134;5.191.204.833.984.370;-7.806.412.506.103.510;-9.863.488.769.531.250;988.191.795.349.121;-0.31807979941368;-0.03436871618032;-2.406.109.619.140.620;-574.155.092.239.380;-1.061.901.760.101.310
30;1610446467;5.217.358.016.967.770;-7.801.414.489.746.090;-9.905.025.482.177.730;1.025.853.347.778.320;-0.40087828040123;0.01064683496952;-1.837.633.705.139.160;-475.483.560.562.134;-1.182.710.742.950.430
31;1610454800;5.245.764.541.625.970;-7.795.376.586.914.060;-9.944.226.074.218.750;1.052.886.486.053.460;-0.51565563678741;0.11409210413694;-1.293.376.827.239.990;-350.250.363.349.915;-1.250.877.761.840.820
32;1610463133;5.276.797.485.351.560;-7.788.993.072.509.760;-9.981.686.401.367.180;1.069.365.978.240.960;-0.54894590377808;0.11194436997175;-771.306.276.321.411;-311.863.613.128.662;-1.254.585.361.480.710
33;1610471466;5.316.763.687.133.780;-7.783.448.028.564.450;-10.022.884.368.896.400;1.077.528.667.449.950;-0.55788838863373;0.06965602189302;-137.553.572.654.724;-456.238.222.122.192;-1.232.736.396.789.550
34;1610479799;5.366.785.812.377.930;-7.779.235.076.904.290;-10.068.715.667.724.600;1.082.460.880.279.540;-0.44508448243141;-0.11063148826361;527.129.459.381.104;-660.765.361.785.889;-1.172.250.843.048.090
35;1610488132;5.420.108.795.166.010;-7.776.097.869.873.040;-10.114.276.885.986.300;1.079.179.191.589.350;-0.22355316579342;-0.30675914883614;955.733.871.459.961;-742.773.246.765.137;-1.060.879.135.131.830
36;1610496465;5.468.734.741.210.930;-7.773.474.884.033.200;-10.152.724.456.787.100;1.057.119.750.976.560;-0.17618164420128;-0.18753580749035;1.226.604.557.037.350;-643.338.823.318.481;-899.552.917.480.469
37;1610504798;5.515.330.505.371.090;-7.772.181.701.660.150;-10.186.811.065.673.800;1.021.227.931.976.310;-0.24864660203457;-0.04641846194863;1.494.937.896.728.510;-650.857.877.731.323;-701.694.393.157.959
38;1610513131;5.562.455.749.511.710;-7.772.512.054.443.350;-10.218.486.785.888.600;997.882.175.445.557;-0.38649713993073;0.00507759721950;1.841.118.431.091.300;-717.189.836.502.075;-501.246.356.964.111
39;1610521464;5.613.205.337.524.410;-7.774.856.567.382.810;-10.250.022.888.183.500;977.341.461.181.641;-0.49229639768600;0.18366584181786;2.290.931.892.395.020;-849.376.106.262.207;-295.560.240.745.544
40;1610529797;5.670.256.042.480.460;-7.778.734.588.623.040;-10.283.918.762.207.000;962.577.724.456.787;-0.41286423802376;0.27411392331123;2.771.422.386.169.430;-1.005.018.711.090.080;-163.308.787.345.886
41;1610538130;5.732.301.712.036.130;-7.783.156.585.693.350;-10.319.461.059.570.300;964.810.657.501.221;-0.18173430860043;0.30714058876038;3.176.569.747.924.800;-1.056.439.781.188.960;-133.767.938.613.892
42;1610546463;5.791.819.381.713.860;-7.786.147.308.349.600;-10.350.675.964.355.400;975.111.961.364.746;0.04074256122112;0.54556316137314;3.380.292.510.986.320;-887.780.094.146.729;-194.430.196.285.248
43;1610554796;5.849.465.560.913.080;-7.787.727.355.957.030;-10.378.214.263.916.000;996.555.805.206.299;0.35848963260651;0.94120579957962;3.586.948.394.775.390;-704.932.689.666.748;-291.976.976.394.653
44;1610563129;5.901.739.883.422.850;-7.787.619.781.494.140;-10.399.863.433.837.800;1.022.837.162.017.820;0.97564524412155;110.476.064.682.007;3.633.390.045.166.010;-489.593.648.910.522;-368.041.157.722.473
45;1610571462;5.944.738.388.061.520;-7.786.058.807.373.040;-10.414.313.507.080.000;1.037.938.022.613.520;146.190.953.254.700;0.96412897109985;3.364.048.385.620.110;-228.695.631.027.222;-439.985.084.533.691
46;1610579795;5.981.727.600.097.650;-7.783.269.500.732.420;-10.424.782.562.255.800;1.043.787.956.237.790;194.008.004.665.375;115.184.772.014.618;3.111.095.237.731.930;-0.88759815692902;-496.533.679.962.158
47;1610588128;6.012.789.154.052.730;-7.779.926.300.048.820;-10.431.879.425.048.800;1.043.124.961.853.020;231.303.524.971.008;148.765.075.206.757;2.794.868.659.973.140;0.19615395367146;-516.346.216.201.782
48;1610596461;6.038.409.805.297.850;-7.776.025.390.625.000;-10.436.779.785.156.200;1.027.750.301.361.080;251.993.036.270.142;177.667.987.346.649;2.399.575.996.398.920;0.94475591182709;-542.075.634.002.686
49;1610604794;6.060.514.450.073.240;-7.771.514.892.578.120;-10.441.294.097.900.300;996.999.073.028.564;247.799.468.040.466;183.015.966.415.405;2.023.955.917.358.390;138.852.262.496.948;-604.620.456.695.557
50;1610613127;6.080.137.634.277.340;-7.766.387.939.453.120;-10.445.315.551.757.800;973.542.404.174.805;238.854.575.157.166;187.836.396.694.183;1.783.386.230.468.750;181.820.130.348.206;-660.992.097.854.614
51;1610621460;6.094.287.490.844.720;-7.760.180.664.062.500;-10.444.947.052.001.900;960.381.698.608.398;239.135.122.299.194;197.505.140.304.565;1.640.976.333.618.160;343.164.229.393.005;-722.640.419.006.348
52;1610629793;6.105.934.524.536.130;-7.753.582.000.732.420;-10.442.919.921.875.000;953.582.000.732.422;248.224.401.473.999;205.080.056.190.491;1.535.186.672.210.690;400.137.948.989.868;-741.341.304.779.053
53;1610638126;6.115.288.543.701.170;-7.746.994.781.494.140;-10.439.350.891.113.200;962.581.729.888.916;253.696.727.752.686;204.033.684.730.530;1.440.488.433.837.890;441.230.821.609.497;-729.661.369.323.730
54;1610646459;6.121.790.695.190.430;-7.740.945.434.570.310;-10.433.267.211.914.000;975.756.072.998.047;255.569.124.221.802;188.867.020.606.995;1.392.763.996.124.260;459.204.435.348.511;-633.374.786.376.953
55;1610654792;6.125.170.135.498.040;-7.735.886.383.056.640;-10.424.353.027.343.700;978.734.397.888.184;254.034.304.618.835;165.505.325.794.220;1.349.337.673.187.250;475.769.138.336.182;-503.866.672.515.869
56;1610663125;6.127.910.614.013.670;-7.732.454.681.396.480;-10.414.646.911.621.000;978.989.887.237.549;247.662.234.306.335;148.572.063.446.045;1.365.103.054.046.630;392.056.608.200.073;-312.825.393.676.758
57;1610671458;6.127.743.148.803.710;-7.730.680.084.228.510;-10.401.992.034.912.100;976.866.626.739.502;246.473.670.005.798;133.669.400.215.149;1.361.294.364.929.190;369.997.668.266.296;-106.136.441.230.774
58;1610679791;6.121.130.752.563.470;-7.730.049.133.300.780;-10.383.274.841.308.500;955.224.227.905.273;243.863.058.090.210;120.240.640.640.259;1.297.760.677.337.640;439.781.093.597.412;0.96862798929214
59;1610688124;6.110.742.187.500.000;-7.730.563.354.492.180;-10.361.521.911.621.000;929.108.047.485.352;239.492.487.907.410;105.767.714.977.264;1.200.315.380.096.430;449.377.536.773.682;249.325.180.053.711
60;1610696457;6.097.266.769.409.180;-7.731.830.596.923.820;-10.337.487.030.029.200;917.471.694.946.289;236.137.723.922.729;111.739.397.048.950;1.096.412.181.854.240;451.225.519.180.298;365.279.507.637.024
61;1610704790;6.082.419.586.181.640;-7.733.679.962.158.200;-10.313.788.604.736.300;911.094.284.057.617;239.877.581.596.375;125.290.989.875.793;892.435.932.159.424;421.338.891.983.032;407.952.880.859.375
62;1610713123;6.069.063.186.645.500;-7.735.331.726.074.210;-10.292.707.061.767.500;912.333.583.831.787;238.663.148.880.005;119.862.186.908.722;765.542.984.008.789;357.398.033.142.090;369.508.457.183.838
63;1610721456;6.057.950.210.571.280;-7.736.338.806.152.340;-10.274.696.350.097.600;917.952.442.169.189;241.451.692.581.177;118.253.254.890.442;675.649.881.362.915;330.851.459.503.174;254.400.610.923.767
64;1610729789;6.047.843.170.166.010;-7.735.749.816.894.530;-10.258.939.361.572.200;920.601.654.052.734;239.772.439.002.991;119.661.772.251.129;532.356.023.788.452;365.410.089.492.798;0.68228632211685
65;1610738122;6.040.318.298.339.840;-7.733.631.134.033.200;-10.246.648.406.982.400;913.053.321.838.379;224.138.402.938.843;118.266.415.596.008;433.181.524.276.733;383.735.823.631.287;-144.195.342.063.904
66;1610746455;6.036.185.073.852.530;-7.729.686.737.060.540;-10.237.770.843.505.800;899.576.568.603.516;205.393.743.515.015;113.810.062.408.447;443.163.394.927.979;407.733.774.185.181;-370.545.744.895.935
67;1610754788;6.037.041.091.918.940;-7.724.256.896.972.650;-10.233.246.612.548.800;893.319.702.148.438;192.148.411.273.956;109.674.251.079.559;534.567.880.630.493;404.237.508.773.804;-589.017.295.837.402
68;1610763121;6.041.445.922.851.560;-7.717.203.521.728.510;-10.231.441.497.802.700;899.504.280.090.332;187.664.353.847.504;110.044.062.137.604;639.715.528.488.159;430.337.047.576.904;-786.993.551.254.272
69;1610771454;6.047.845.840.454.100;-7.708.950.042.724.600;-10.229.906.463.623.000;909.508.705.139.160;191.848.766.803.741;107.503.545.284.271;841.391.849.517.822;495.917.224.884.033;-918.520.069.122.314
70;1610779787;6.055.466.079.711.910;-7.700.302.124.023.430;-10.228.013.610.839.800;926.649.761.199.951;204.962.086.677.551;111.852.920.055.389;1.035.750.293.731.680;525.342.988.967.896;-952.274.703.979.492
71;1610788120;6.063.233.566.284.180;-7.692.112.731.933.590;-10.224.961.853.027.300;946.533.679.962.158;225.428.605.079.651;116.250.145.435.333;1.199.299.716.949.460;530.263.471.603.394;-892.214.393.615.723
72;1610796453;6.070.595.169.067.380;-7.684.898.376.464.840;-10.219.972.229.003.900;965.877.151.489.258;240.322.017.669.678;116.160.166.263.580;1.366.312.408.447.260;512.943.124.771.118;-762.724.256.515.503
73;1610804786;6.078.819.274.902.340;-7.679.497.528.076.170;-10.213.768.768.310.500;981.884.860.992.432;263.307.046.890.259;116.776.096.820.831;1.578.316.211.700.430;439.012.718.200.684;-571.777.677.536.011
74;1610813119;6.088.481.140.136.710;-7.676.342.773.437.500;-10.207.861.328.125.000;993.724.632.263.184;273.409.962.654.114;115.295.171.737.671;1.749.593.544.006.340;296.536.111.831.665;-325.827.264.785.767
75;1610821452;6.098.286.056.518.550;-7.675.321.960.449.210;-10.200.592.803.955.000;991.416.358.947.754;276.924.204.826.355;104.827.058.315.277;1.892.597.770.690.910;203.674.197.196.960;-0.94028592109680
76;1610829785;6.106.459.045.410.150;-7.675.310.516.357.420;-10.190.793.609.619.100;970.291.423.797.607;271.340.441.703.796;0.97787708044052;2.025.483.322.143.550;206.941.318.511.963;0.54974573850632
77;1610838118;6.114.606.857.299.800;-7.675.724.029.541.010;-10.180.201.721.191.400;945.262.622.833.252;262.868.213.653.564;0.96116286516190;2.141.551.971.435.540;209.620.547.294.617;110.831.546.783.447
78;1610846451;6.124.229.049.682.610;-7.676.064.300.537.100;-10.169.824.981.689.400;922.289.943.695.068;256.517.601.013.184;0.85606962442398;2.266.737.747.192.380;200.708.127.021.790;0.98545694351196
79;1610854784;6.135.549.545.288.080;-7.676.039.123.535.150;-10.160.231.781.005.800;907.873.535.156.250;257.670.140.266.418;0.82436931133270;2.343.485.832.214.350;205.141.949.653.625;0.36820477247238
80;1610863117;6.148.085.403.442.380;-7.675.315.856.933.590;-10.151.963.043.212.800;898.622.894.287.109;261.211.752.891.541;0.83323681354523;2.370.383.453.369.140;211.860.585.212.708;-0.42100858688354
81;1610871450;6.162.185.668.945.310;-7.674.380.493.164.060;-10.146.110.534.667.900;900.399.208.068.848;273.559.045.791.626;0.90949529409409;2.292.724.990.844.720;175.758.576.393.127;-0.99893003702164
82;1610879783;6.177.507.400.512.690;-7.673.429.107.666.010;-10.142.553.710.937.500;907.104.206.085.205;289.325.642.585.754;0.90317279100418;2.154.062.843.322.750;110.545.957.088.470;-128.459.262.847.900
83;1610888116;6.194.046.020.507.810;-7.672.808.837.890.620;-10.141.513.824.462.800;916.619.110.107.422;307.113.409.042.358;0.92379337549210;1.954.722.785.949.700;0.25032800436020;-136.256.229.877.472
84;1610896449;6.210.744.857.788.080;-7.672.718.048.095.700;-10.143.741.607.666.000;921.672.344.207.764;321.490.550.041.199;105.789.721.012.115;1.643.994.903.564.450;-0.78740745782852;-112.858.915.328.979
85;1610904782;6.229.787.445.068.350;-7.673.637.390.136.710;-10.151.000.213.623.000;926.108.264.923.096;324.369.692.802.429;106.811.094.284.058;1.313.901.424.407.950;-253.465.676.307.678;-0.79245322942734
86;1610913115;6.250.109.481.811.520;-7.674.993.133.544.920;-10.162.220.001.220.700;935.148.715.972.900;321.690.845.489.502;100.445.163.249.969;1.028.452.587.127.680;-378.776.931.762.695;-0.73040276765823
87;1610921448;6.270.255.279.541.010;-7.676.826.477.050.780;-10.175.516.510.009.700;943.058.109.283.447;308.078.050.613.403;0.98605757951736;750.994.062.423.706;-446.101.379.394.531;-0.56081086397171
88;1610929781;6.290.774.917.602.530;-7.678.954.315.185.540;-10.191.510.009.765.600;947.644.138.336.182;285.760.927.200.317;0.97998297214508;494.019.222.259.521;-536.791.133.880.615;-0.48104813694954
89;1610938114;6.312.182.998.657.220;-7.681.404.113.769.530;-10.209.591.674.804.600;952.909.278.869.629;262.530.016.899.109;0.91867572069168;360.761.117.935.181;-593.869.924.545.288;-0.41893365979195
90;1610946447;6.332.711.791.992.180;-7.683.556.365.966.790;-10.227.010.345.458.900;959.479.141.235.352;241.808.104.515.076;0.85732299089432;328.377.032.279.968;-571.101.379.394.531;-0.58821803331375
91;1610954780;6.352.292.633.056.640;-7.685.304.260.253.900;-10.243.698.883.056.600;960.386.753.082.275;225.570.201.873.779;0.92149460315704;304.916.977.882.385;-519.734.621.047.974;-0.95770353078842
92;1610963113;6.373.752.212.524.410;-7.687.004.852.294.920;-10.261.727.905.273.400;957.945.346.832.275;214.464.306.831.360;0.94220197200775;368.458.199.501.038;-560.871.028.900.146;-109.960.627.555.847
93;1610971446;6.395.731.735.229.490;-7.688.692.474.365.230;-10.279.988.098.144.500;959.641.742.706.299;209.767.174.720.764;0.99469733238220;406.705.379.486.084;-554.236.936.569.214;-115.946.662.425.995
94;1610979779;6.416.931.152.343.750;-7.690.173.339.843.750;-10.297.055.816.650.300;956.705.665.588.379;210.498.690.605.164;0.99501377344131;448.897.171.020.508;-524.972.677.230.835;-118.103.396.892.548
95;1610988112;6.438.297.271.728.510;-7.691.747.283.935.540;-10.313.768.768.310.500;951.867.771.148.682;219.313.549.995.422;0.96197223663330;509.761.714.935.303;-509.755.325.317.383;-105.452.525.615.692
96;1610996445;6.458.302.307.128.900;-7.693.258.666.992.180;-10.329.039.764.404.200;948.038.291.931.152;230.797.362.327.576;101.086.330.413.818;515.519.714.355.469;-481.746.101.379.395;-0.89978963136673
97;1611004778;6.477.056.121.826.170;-7.694.714.355.468.750;-10.343.492.126.464.800;947.992.134.094.238;246.697.187.423.706;105.424.010.753.632;460.356.998.443.604;-447.387.218.475.342;-0.88921099901199
98;1611013111;6.494.010.162.353.510;-7.696.102.905.273.430;-10.356.900.024.414.000;945.269.870.758.057;259.250.760.078.430;111.377.871.036.530;367.139.101.028.442;-429.167.795.181.274;-0.78035056591034
99;1611021444;6.509.679.412.841.790;-7.697.653.961.181.640;-10.370.524.597.167.900;940.570.259.094.238;266.142.463.684.082;109.531.402.587.891;187.163.233.757.019;-431.196.451.187.134;-0.66298609972000
100;1611029777;6.524.090.576.171.870;-7.699.091.339.111.320;-10.384.376.525.878.900;940.539.932.250.977;271.038.126.945.496;105.726.885.795.593;0.09874287992716;-441.823.816.299.438;-0.74925482273102
101;1611038110;6.538.973.236.083.980;-7.700.645.446.777.340;-10.399.732.208.251.900;944.911.575.317.383;269.952.344.894.409;108.580.422.401.428;-110.083.580.017.090;-473.477.840.423.584;-0.82981163263321
102;1611046443;6.553.767.395.019.530;-7.702.407.073.974.600;-10.415.995.025.634.700;949.602.699.279.785;265.176.606.178.284;103.064.894.676.208;-226.272.296.905.518;-516.268.968.582.153;-0.64049673080444
103;1611054776;6.568.630.981.445.310;-7.704.312.896.728.510;-10.433.345.031.738.200;953.200.340.270.996;260.663.819.313.049;100.964.236.259.460;-345.888.257.026.672;-539.301.347.732.544;-0.61529242992401
104;1611063109;6.582.380.676.269.530;-7.706.233.215.332.030;-10.450.569.152.832.000;950.187.873.840.332;255.514.788.627.625;0.98257720470428;-464.464.187.622.070;-546.529.674.530.029;-0.54843920469284
105;1611071442;6.595.198.059.082.030;-7.708.479.309.082.030;-10.467.906.188.964.800;948.828.601.837.158;250.587.964.057.922;0.99810630083084;-590.655.374.526.978;-555.653.524.398.804;-0.20308250188828
106;1611079775;6.605.838.775.634.760;-7.710.812.377.929.680;-10.483.718.109.130.800;949.094.295.501.709;243.788.671.493.530;0.94239044189453;-672.672.033.309.937;-530.571.985.244.751;0.09208317846060
107;1611088108;6.615.518.951.416.010;-7.713.105.773.925.780;-10.499.182.128.906.200;947.624.301.910.400;235.603.713.989.258;0.90164071321487;-747.915.220.260.620;-509.203.338.623.047;0.06473997980356
108;1611096441;6.623.953.247.070.310;-7.715.106.201.171.870;-10.513.827.514.648.400;950.518.131.256.104;223.331.022.262.573;0.91552573442459;-801.145.458.221.436;-484.399.843.215.942;-0.12798154354095
109;1611104774;6.631.956.481.933.590;-7.716.635.894.775.390;-10.528.187.561.035.100;952.308.082.580.566;211.325.287.818.909;0.89168345928192;-820.758.342.742.920;-444.264.888.763.428;-0.61342263221741
110;1611113107;6.639.038.848.876.950;-7.717.717.742.919.920;-10.541.479.492.187.500;954.123.020.172.119;207.143.259.048.462;0.88096225261688;-805.300.045.013.428;-406.117.534.637.451;-0.97194498777390
111;1611121440;6.645.908.355.712.890;-7.718.353.271.484.370;-10.554.278.564.453.100;956.622.219.085.693;202.526.974.678.040;0.83583486080170;-774.378.585.815.430;-362.711.691.856.384;-142.562.437.057.495
112;1611129773;6.651.985.931.396.480;-7.718.470.764.160.150;-10.565.721.893.310.500;956.790.542.602.539;202.161.407.470.703;0.85128241777420;-709.943.485.260.010;-314.474.987.983.704;-183.422.303.199.768
113;1611138106;6.658.208.465.576.170;-7.718.474.578.857.420;-10.576.934.051.513.600;957.370.376.586.914;201.495.528.221.130;0.86605387926102;-666.022.586.822.510;-294.004.034.996.033;-193.693.554.401.398
114;1611146439;6.663.993.835.449.210;-7.718.344.116.210.930;-10.587.129.974.365.200;957.517.242.431.641;202.560.162.544.250;0.88158267736435;-599.006.795.883.179;-272.530.364.990.234;-196.271.634.101.868
115;1611154772;6.668.071.746.826.170;-7.718.158.721.923.820;-10.595.100.402.832.000;959.140.205.383.301;210.581.612.586.975;0.93162685632706;-544.507.408.142.090;-205.823.206.901.550;-181.069.600.582.123
116;1611163105;6.670.669.555.664.060;-7.717.851.257.324.210;-10.601.436.614.990.200;960.274.219.512.939;219.036.173.820.496;0.91320961713791;-529.375.839.233.398;-170.236.063.003.540;-174.359.953.403.473
117;1611171438;6.671.554.565.429.680;-7.717.488.098.144.530;-10.606.031.036.376.900;962.152.767.181.396;226.466.941.833.496;0.89149093627930;-532.843.923.568.726;-115.101.397.037.506;-165.205.407.142.639
118;1611179771;6.669.834.899.902.340;-7.716.966.247.558.590;-10.608.351.898.193.300;965.904.235.839.844;232.154.965.400.696;0.90363091230392;-577.893.018.722.534;-0.61745679378510;-155.621.862.411.499
119;1611188104;6.666.677.093.505.850;-7.716.555.786.132.810;-10.609.751.129.150.300;966.505.241.394.043;233.374.333.381.653;0.93180447816849;-645.125.150.680.542;-0.36192911863327;-135.927.057.266.235
120;1611196437;6.662.528.991.699.210;-7.716.013.336.181.640;-10.610.482.025.146.400;963.977.241.516.113;234.277.296.066.284;0.99223053455353;-683.132.982.254.028;-0.21532608568668;-142.155.182.361.603
121;1611204770;6.658.229.827.880.850;-7.715.454.101.562.500;-10.611.372.375.488.200;963.550.186.157.227;231.913.590.431.213;0.96840924024582;-720.949.888.229.370;-0.17557278275490;-145.682.263.374.329
122;1611213103;6.653.108.978.271.480;-7.714.849.090.576.170;-10.611.546.325.683.500;961.445.331.573.486;227.457.094.192.505;0.97099190950394;-734.971.046.447.754;-0.04842371866107;-142.718.696.594.238
123;1611221436;6.647.473.144.531.250;-7.714.076.995.849.600;-10.611.338.806.152.300;961.339.378.356.934;221.149.516.105.652;0.94712376594543;-750.401.067.733.765;0.19866400957108;-157.267.558.574.677
124;1611229769;6.641.127.777.099.600;-7.713.205.718.994.140;-10.610.515.594.482.400;962.982.654.571.533;217.174.530.029.297;100.704.979.896.545;-765.029.430.389.404;0.32471171021461;-161.563.086.509.705
125;1611238102;6.633.531.951.904.290;-7.712.272.644.042.960;-10.608.358.001.708.900;963.545.894.622.803;211.186.957.359.314;0.94933581352234;-760.895.299.911.499;0.76071727275848;-153.005.373.477.936
126;1611246435;6.624.549.865.722.650;-7.711.247.253.417.960;-10.604.623.413.085.900;964.479.827.880.859;209.347.796.440.125;0.91734439134598;-740.916.156.768.799;111.311.781.406.403;-147.129.464.149.475
127;1611254768;6.616.020.202.636.710;-7.710.183.715.820.310;-10.601.137.542.724.600;964.074.230.194.092;205.827.617.645.264;0.95432293415070;-715.926.885.604.858;115.489.482.879.639;-153.730.237.483.978
128;1611263101;6.607.061.004.638.670;-7.708.958.435.058.590;-10.596.667.480.468.700;962.848.091.125.488;203.615.236.282.349;0.93171554803848;-652.490.568.161.011;139.600.133.895.874;-160.587.167.739.868
129;1611271434;6.597.560.882.568.350;-7.707.382.202.148.430;-10.591.339.874.267.500;960.177.993.774.414;205.893.230.438.232;0.95887231826782;-618.221.282.958.984;185.956.764.221.191;-189.223.885.536.194
130;1611279767;6.588.538.360.595.700;-7.705.768.585.205.070;-10.586.302.947.998.000;958.910.369.873.047;206.030.917.167.664;0.92312294244766;-593.579.196.929.932;172.907.602.787.018;-195.400.762.557.983
131;1611288100;6.578.437.042.236.320;-7.703.969.573.974.600;-10.580.206.298.828.100;956.696.701.049.805;208.588.767.051.697;0.92682456970215;-596.632.337.570.190;217.256.093.025.208;-204.365.730.285.645
132;1611296433;6.568.438.720.703.120;-7.702.210.998.535.150;-10.574.119.567.871.000;955.384.922.027.588;213.115.191.459.656;0.99004143476486;-588.070.821.762.085;206.545.495.986.938;-199.479.818.344.116
133;1611304766;6.558.077.239.990.230;-7.700.506.591.796.870;-10.567.864.227.294.900;953.566.646.575.928;215.783.762.931.824;0.96057432889938;-614.981.126.785.278;216.419.768.333.435;-191.257.631.778.717
134;1611313099;6.547.734.832.763.670;-7.698.953.247.070.310;-10.561.879.730.224.600;953.538.703.918.457;219.969.320.297.241;0.99934005737305;-641.740.274.429.321;194.614.398.479.462;-176.783.037.185.669
135;1611321432;6.536.855.316.162.100;-7.697.535.705.566.400;-10.555.619.812.011.700;953.715.610.504.150;218.564.462.661.743;101.868.903.636.932;-663.986.349.105.835;205.628.514.289.856;-157.582.628.726.959
136;1611329765;6.525.541.687.011.710;-7.695.990.753.173.820;-10.548.564.910.888.600;956.074.237.823.486;217.511.248.588.562;0.87634456157684;-633.236.360.549.927;221.276.259.422.302;-163.056.373.596.191
137;1611338098;6.513.615.417.480.460;-7.694.094.085.693.350;-10.540.904.235.839.800;962.238.979.339.600;221.167.564.392.090;0.90343195199966;-648.327.064.514.160;259.875.631.332.397;-194.514.501.094.818
138;1611346431;6.500.600.433.349.600;-7.691.998.291.015.620;-10.532.392.883.300.700;955.253.410.339.355;218.246.221.542.358;0.87295186519623;-667.107.343.673.706;285.999.560.356.140;-205.523.490.905.762
139;1611354764;6.490.973.663.330.070;-7.690.052.795.410.150;-10.526.926.422.119.100;953.707.790.374.756;217.709.493.637.085;0.90488821268082;-628.871.679.306.030;209.024.953.842.163;-223.388.123.512.268
140;1611363097;6.482.458.496.093.750;-7.688.221.740.722.650;-10.522.637.939.453.100;957.540.893.554.688;216.535.592.079.163;0.87284725904465;-620.705.890.655.518;169.174.337.387.085;-223.047.471.046.448
141;1611371430;6.475.231.170.654.290;-7.686.585.998.535.150;-10.519.631.195.068.300;954.602.622.985.840;210.636.901.855.469;0.85888254642487;-609.333.181.381.226;138.078.653.812.408;-216.521.000.862.122
142;1611379763;6.469.554.901.123.040;-7.685.236.358.642.570;-10.517.724.609.375.000;953.280.639.648.438;204.692.316.055.298;0.88246524333954;-558.176.469.802.856;0.86491584777832;-198.278.498.649.597
143;1611388096;6.464.863.586.425.780;-7.684.078.216.552.730;-10.517.023.468.017.500;952.789.211.273.193;199.985.218.048.096;0.88355064392090;-556.730.508.804.321;0.60553336143494;-188.441.383.838.654
144;1611396429;6.460.960.388.183.590;-7.682.998.657.226.560;-10.516.742.706.298.800;950.828.266.143.799;194.599.008.560.181;0.85967803001404;-535.664.129.257.202;0.32811838388443;-188.183.939.456.940
145;1611404762;6.459.167.480.468.750;-7.682.028.961.181.640;-10.518.964.385.986.300;953.164.577.484.131;194.948.494.434.357;0.84753137826920;-505.657.052.993.774;-0.11791511625051;-198.245.215.415.955
146;1611413095;6.457.772.827.148.430;-7.680.957.031.250.000;-10.520.822.906.494.100;955.217.266.082.764;197.270.464.897.156;0.86691570281982;-484.845.399.856.567;-0.20385086536407;-212.176.775.932.312
147;1611421428;6.457.144.165.039.060;-7.679.823.303.222.650;-10.522.962.188.720.700;952.246.856.689.453;198.312.819.004.059;0.82198274135590;-442.389.869.689.941;-0.20062349736691;-223.439.383.506.775
148;1611429761;6.457.201.385.498.040;-7.678.681.182.861.320;-10.525.756.072.998.000;953.956.508.636.475;199.477.756.023.407;0.85850763320923;-419.801.950.454.712;-0.39830139279366;-231.365.704.536.438
149;1611438094;6.458.242.034.912.100;-7.677.703.094.482.420;-10.530.243.682.861.300;955.386.352.539.062;199.568.021.297.455;0.81162798404694;-405.739.736.557.007;-0.62496173381805;-223.025.727.272.034
150;1611446427;6.459.587.860.107.420;-7.676.763.916.015.620;-10.533.912.658.691.400;952.359.104.156.494;199.066.054.821.014;0.78963607549667;-367.089.152.336.121;-0.72351253032684;-219.364.190.101.624
151;1611454760;6.462.225.341.796.870;-7.676.065.826.416.010;-10.538.968.658.447.200;953.499.126.434.326;199.268.293.380.737;0.83488601446152;-332.832.646.369.934;-102.442.848.682.404;-204.402.875.900.269
152;1611463093;6.464.661.407.470.700;-7.675.432.586.669.920;-10.543.022.918.701.100;953.434.467.315.674;197.892.248.630.524;0.82375401258469;-281.227.684.020.996;-0.97765696048737;-190.543.031.692.505
153;1611471426;6.467.579.650.878.900;-7.674.825.286.865.230;-10.546.607.971.191.400;958.071.422.576.904;200.195.121.765.137;0.80522382259369;-215.515.613.555.908;-0.89677995443344;-185.846.626.758.575
154;1611479759;6.469.933.319.091.790;-7.674.140.930.175.780;-10.549.572.753.906.200;958.473.205.566.406;198.492.193.222.046;0.86973023414612;-163.860.654.830.933;-0.68112093210220;-183.770.620.822.906
155;1611488092;6.471.938.323.974.600;-7.673.418.426.513.670;-10.551.844.024.658.200;960.870.075.225.830;200.961.327.552.795;0.85749852657318;-133.243.954.181.671;-0.42764243483543;-179.795.277.118.683
156;1611496425;6.472.254.180.908.200;-7.672.636.413.574.210;-10.552.452.850.341.700;963.091.373.443.604;205.144.667.625.427;0.91187226772308;-133.261.895.179.749;-0.04527315869927;-166.703.844.070.435
157;1611504758;6.472.228.240.966.790;-7.671.965.789.794.920;-10.553.741.455.078.100;965.615.367.889.404;206.169.486.045.837;0.90836638212204;-127.076.053.619.385;0.08255468308926;-149.532.055.854.797
158;1611513091;6.471.019.744.873.040;-7.671.442.413.330.070;-10.552.765.655.517.500;965.867.710.113.525;210.812.687.873.840;0.92972809076309;-130.800.366.401.672;0.21667081117630;-119.517.290.592.194
159;1611521424;6.469.742.584.228.510;-7.671.018.981.933.590;-10.551.711.273.193.300;963.252.639.770.508;210.677.266.120.911;0.96687078475952;-145.011.138.916.016;0.22386841475964;-107.939.672.470.093
160;1611529757;6.469.693.756.103.510;-7.670.918.273.925.780;-10.552.006.530.761.700;960.641.098.022.461;211.234.378.814.697;100.956.070.423.126;-140.404.415.130.615;-0.31794950366020;-0.88586831092834
161;1611538090;6.470.811.462.402.340;-7.671.060.943.603.510;-10.553.843.688.964.800;961.312.294.006.348;210.600.566.864.014;100.205.242.633.820;-149.205.482.006.073;-0.68395131826401;-0.77992779016495
162;1611546423;6.471.466.064.453.120;-7.671.195.983.886.710;-10.555.040.740.966.700;959.711.170.196.533;210.639.953.613.281;100.839.638.710.022;-161.319.720.745.087;-0.66495823860168;-0.73890662193298
163;1611554756;6.473.022.460.937.500;-7.671.517.944.335.930;-10.556.951.141.357.400;959.094.333.648.682;207.910.561.561.584;0.96178305149078;-161.862.754.821.777;-0.91590094566345;-0.63632160425186
164;1611563089;6.475.401.306.152.340;-7.671.986.389.160.150;-10.560.032.653.808.500;956.325.531.005.859;206.749.248.504.639;0.98785763978958;-174.003.911.018.372;-130.390.548.706.055;-0.59595364332199
165;1611571422;6.477.638.244.628.900;-7.672.460.937.500.000;-10.563.047.790.527.300;955.726.718.902.588;202.981.948.852.539;0.98698449134827;-186.536.931.991.577;-122.068.464.756.012;-0.58017522096634
166;1611579755;6.479.946.899.414.060;-7.672.930.908.203.120;-10.566.456.604.003.900;954.454.708.099.365;206.395.196.914.673;0.96085649728775;-221.128.964.424.133;-138.605.022.430.420;-0.62981557846069
167;1611588088;6.482.209.777.832.030;-7.673.435.974.121.090;-10.569.783.782.958.900;950.942.230.224.609;206.349.968.910.217;0.97022062540054;-218.392.109.870.911;-130.965.590.476.990;-0.58118700981140
168;1611596421;6.483.950.042.724.600;-7.673.808.288.574.210;-10.572.732.543.945.300;951.534.938.812.256;208.012.819.290.161;0.97107654809952;-235.622.787.475.586;-121.862.292.289.734;-0.68635904788971
169;1611604754;6.485.874.176.025.390;-7.674.127.197.265.620;-10.576.801.300.048.800;950.340.366.363.525;211.004.495.620.728;0.97387260198593;-266.480.255.126.953;-122.909.915.447.235;-0.78973817825317
170;1611613087;6.487.427.520.751.950;-7.674.308.776.855.460;-10.580.173.492.431.600;950.375.366.210.938;212.083.387.374.878;0.95693010091782;-307.368.278.503.418;-122.771.596.908.569;-0.94250142574310
171;1611621420;6.489.266.204.833.980;-7.674.617.767.333.980;-10.583.790.588.378.900;951.969.623.565.674;211.370.229.721.069;0.92952936887741;-318.361.854.553.223;-131.262.707.710.266;-0.84304130077362
172;1611629753;6.491.039.276.123.040;-7.674.906.158.447.260;-10.587.670.135.498.000;950.982.570.648.193;214.408.159.255.981;0.91528367996216;-340.491.294.860.840;-141.079.366.207.123;-0.88462597131729
173;1611638086;6.493.817.901.611.320;-7.675.315.856.933.590;-10.592.871.856.689.400;952.107.048.034.668;214.928.102.493.286;0.94977003335953;-339.225.959.777.832;-165.085.017.681.122;-0.85301798582077
174;1611646419;6.497.658.538.818.350;-7.675.851.440.429.680;-10.598.764.801.025.300;952.187.538.146.973;213.126.564.025.879;0.95251512527466;-327.274.274.826.050;-203.680.515.289.307;-0.84792071580887
175;1611654752;6.502.932.739.257.810;-7.676.407.623.291.010;-10.605.748.748.779.200;956.505.870.819.092;211.758.899.688.721;0.92062872648239;-291.245.341.300.964;-225.649.857.521.057;-0.95496249198914
176;1611663085;6.508.531.188.964.840;-7.677.107.238.769.530;-10.613.091.278.076.100;957.688.140.869.141;210.660.886.764.526;0.97303301095963;-286.145.544.052.124;-247.813.844.680.786;-0.83455008268356
177;1611671418;6.514.422.607.421.870;-7.677.995.300.292.960;-10.620.879.364.013.600;957.841.968.536.377;209.246.325.492.859;0.97123980522156;-275.489.997.863.770;-255.188.155.174.255;-0.63949763774872
178;1611679751;6.519.990.539.550.780;-7.678.980.255.126.950;-10.628.537.750.244.100;961.735.248.565.674;207.089.424.133.301;0.96178829669952;-326.715.993.881.226;-269.934.368.133.545;-0.55333155393600
179;1611688084;6.525.514.221.191.400;-7.679.862.213.134.760;-10.634.465.026.855.400;960.457.134.246.826;205.974.030.494.690;100.561.594.963.074;-303.555.583.953.857;-251.553.535.461.426;-0.61831480264664
180;1611696417;6.530.061.340.332.030;-7.680.586.242.675.780;-10.641.036.987.304.600;962.098.121.643.066;208.280.801.773.071;0.97220987081528;-322.138.714.790.344;-229.445.910.453.796;-0.70737552642822
181;1611704750;6.534.047.698.974.600;-7.681.196.594.238.280;-10.647.686.767.578.100;960.612.392.425.537;209.843.277.931.213;101.774.501.800.537;-315.970.778.465.271;-201.213.884.353.638;-0.74520766735077
182;1611713083;6.537.704.467.773.430;-7.681.714.630.126.950;-10.653.340.911.865.200;959.101.009.368.896;208.489.131.927.490;100.050.079.822.540;-322.169.399.261.475;-196.132.016.181.946;-0.82783913612366
183;1611721416;6.541.146.850.585.930;-7.682.265.472.412.100;-10.659.038.543.701.100;959.895.515.441.895;206.732.463.836.670;0.94028162956238;-302.602.744.102.478;-181.329.572.200.775;-0.73785644769669
184;1611729749;6.543.547.821.044.920;-7.682.557.678.222.650;-10.663.198.852.539.000;960.341.644.287.109;209.580.683.708.191;0.94023668766022;-297.893.548.011.780;-147.576.403.617.859;-0.89849615097046
185;1611738082;6.546.100.616.455.070;-7.682.698.822.021.480;-10.667.521.667.480.400;957.215.118.408.203;207.263.135.910.034;0.96578747034073;-296.765.232.086.182;-137.050.247.192.383;-106.794.703.006.744
186;1611746415;6.549.904.632.568.350;-7.682.997.131.347.650;-10.672.989.654.541.000;955.493.545.532.227;208.114.290.237.427;0.92985051870346;-282.431.554.794.312;-180.363.953.113.556;-104.294.764.995.575
187;1611754748;6.553.817.749.023.430;-7.683.430.480.957.030;-10.678.417.205.810.500;957.065.963.745.117;209.706.807.136.536;0.94060754776001;-276.327.657.699.585;-182.226.049.900.055;-0.87719792127609
188;1611763081;6.557.262.420.654.290;-7.684.120.178.222.650;-10.683.497.619.628.900;950.349.807.739.258;208.523.011.207.581;101.394.486.427.307;-280.256.891.250.610;-190.279.185.771.942;-0.56652283668518
189;1611771414;6.561.336.517.333.980;-7.685.006.713.867.180;-10.688.765.716.552.700;951.463.127.136.230;204.628.562.927.246;0.95245951414108;-234.621.262.550.354;-199.296.665.191.650;-0.36761549115181
190;1611779747;6.565.564.727.783.200;-7.685.910.797.119.140;-10.694.030.761.718.700;952.663.135.528.564;202.110.767.364.502;0.98684918880463;-208.041.381.835.938;-205.251.979.827.881;-0.35137605667114
191;1611788080;6.570.436.096.191.400;-7.686.744.689.941.400;-10.699.378.967.285.100;951.772.403.717.041;201.956.748.962.402;0.97739088535309;-162.234.163.284.302;-201.982.331.275.940;-0.44091066718102
192;1611796413;6.575.098.419.189.450;-7.687.604.522.705.070;-10.704.486.846.923.800;954.043.674.468.994;204.742.574.691.772;0.98531436920166;-137.567.651.271.820;-198.775.410.652.161;-0.37669578194618
193;1611804746;6.579.538.726.806.640;-7.688.272.857.666.010;-10.709.218.597.412.100;954.895.877.838.135;206.702.423.095.703;101.971.411.705.017;-150.163.459.777.832;-180.242.264.270.782;-0.54540395736694
194;1611813079;6.583.893.585.205.070;-7.688.825.225.830.070;-10.714.070.892.333.900;955.248.832.702.637;206.748.723.983.765;0.97937208414078;-144.518.077.373.505;-177.273.547.649.384;-0.68031412363052
195;1611821412;6.588.267.517.089.840;-7.689.465.332.031.250;-10.719.213.104.248.000;954.568.004.608.154;209.016.251.564.026;101.081.621.646.881;-155.844.700.336.456;-177.691.090.106.964;-0.59076678752899
196;1611829745;6.592.253.875.732.420;-7.690.097.808.837.890;-10.723.948.669.433.500;953.903.007.507.324;208.207.869.529.724;0.98315507173538;-174.993.908.405.304;-178.236.675.262.451;-0.57775473594666
197;1611838078;6.596.929.931.640.620;-7.690.726.470.947.260;-10.729.875.183.105.400;954.813.766.479.492;209.403.109.550.476;0.95382124185562;-201.071.739.196.777;-194.660.484.790.802;-0.67096483707428
198;1611846411;6.601.352.691.650.390;-7.691.272.735.595.700;-10.735.297.393.798.800;959.140.110.015.869;209.335.279.464.722;100.841.093.063.354;-203.334.784.507.751;-190.832.459.926.605;-0.74702638387680
199;1611854744;6.605.529.785.156.250;-7.691.751.861.572.260;-10.741.018.676.757.800;960.047.817.230.225;209.492.802.619.934;0.99992215633392;-220.527.029.037.476;-178.647.756.576.538;-0.79413092136383
200;1611863077;6.608.993.530.273.430;-7.692.248.535.156.250;-10.745.563.507.080.000;961.243.534.088.135;206.923.532.485.962;0.95282679796219;-216.056.084.632.874;-166.802.465.915.680;-0.69627177715302
201;1611871410;6.612.338.256.835.930;-7.692.711.639.404.290;-10.750.785.827.636.700;961.630.630.493.164;211.417.484.283.447;100.927.686.691.284;-221.761.655.807.495;-157.200.968.265.533;-0.72463947534561
202;1611879743;6.615.279.388.427.730;-7.693.061.828.613.280;-10.754.748.535.156.200;962.021.636.962.891;212.371.873.855.591;0.98637771606445;-210.274.958.610.535;-144.884.359.836.578;-0.79391324520111
203;1611888076;6.618.303.680.419.920;-7.693.423.461.914.060;-10.758.806.610.107.400;961.576.557.159.424;209.711.909.294.128;102.469.027.042.389;-213.744.378.089.905;-143.087.518.215.179;-0.77427989244461
204;1611896409;6.621.003.723.144.530;-7.694.044.494.628.900;-10.762.626.647.949.200;959.363.460.540.771;212.244.534.492.493;0.97799855470657;-222.445.559.501.648;-154.209.232.330.322;-0.48222640156746
205;1611904742;6.624.269.104.003.900;-7.694.776.153.564.450;-10.766.766.357.421.800;960.248.279.571.533;212.251.734.733.582;0.98583173751831;-222.941.184.043.884;-168.613.386.154.175;-0.41254287958145
206;1611913075;6.626.271.820.068.350;-7.695.542.907.714.840;-10.769.783.782.958.900;957.353.973.388.672;209.869.837.760.925;0.95235443115234;-212.050.032.615.662;-141.431.581.974.030;-0.22996462881565
207;1611921408;6.628.159.332.275.390;-7.696.345.520.019.530;-10.773.307.037.353.500;957.795.715.332.031;210.460.329.055.786;0.98338139057159;-195.715.832.710.266;-131.185.877.323.151;-0.15161067247391
208;1611929741;6.629.030.609.130.850;-7.697.047.424.316.400;-10.775.169.372.558.500;958.078.479.766.846;206.205.463.409.424;100.702.309.608.459;-213.077.116.012.573;-109.554.648.399.353;-0.17778839170933
209;1611938074;6.629.572.296.142.570;-7.697.634.124.755.850;-10.776.792.144.775.300;955.997.085.571.289;206.140.780.448.914;101.221.370.697.021;-210.020.089.149.475;-0.89474368095398;-0.24365542829037
210;1611946407;6.629.818.725.585.930;-7.698.193.359.375.000;-10.777.680.206.298.800;957.175.731.658.936;200.724.005.699.158;0.99682664871216;-174.318.945.407.867;-0.78514027595520;-0.22390682995319
211;1611954740;6.630.132.293.701.170;-7.698.621.368.408.200;-10.778.602.600.097.600;958.302.879.333.496;201.110.768.318.176;0.97865915298462;-134.130.215.644.836;-0.59900164604187;-0.32357180118561
212;1611963073;6.629.793.548.583.980;-7.698.888.397.216.790;-10.778.336.334.228.500;958.436.584.472.656;202.446.198.463.440;0.96976816654205;-109.302.341.938.019;-0.35802295804024;-0.42272451519966
213;1611971406;6.629.650.878.906.250;-7.699.155.426.025.390;-10.778.263.854.980.400;958.804.988.861.084;201.302.456.855.774;0.99266439676285;-0.85215997695923;-0.30255532264709;-0.40736877918243
214;1611979739;6.629.208.374.023.430;-7.699.272.155.761.710;-10.777.388.763.427.700;958.191.299.438.477;203.675.770.759.583;0.96652072668076;-0.50515115261078;-0.13738194108009;-0.51775324344635
215;1611988072;6.628.267.669.677.730;-7.699.396.514.892.570;-10.775.724.792.480.400;959.023.189.544.678;205.469.703.674.316;0.98272234201431;-0.58978056907654;0.02328334003687;-0.45187357068062
216;1611996405;6.627.391.052.246.090;-7.699.542.236.328.120;-10.774.547.576.904.200;958.798.503.875.732;209.133.386.611.938;0.98338717222214;-0.68045490980148;-0.07390987128019;-0.45689389109612
217;1612004738;6.626.396.179.199.210;-7.699.623.870.849.600;-10.772.583.007.812.500;959.824.275.970.459;209.813.642.501.831;0.95595574378967;-0.77690529823303;0.01071955636144;-0.50308918952942
218;1612013071;6.625.111.389.160.150;-7.699.874.877.929.680;-10.770.988.464.355.400;960.943.698.883.057;209.963.846.206.665;0.97968912124634;-0.67939198017120;-0.02197701297700;-0.29702267050743
219;1612021404;6.623.675.537.109.370;-7.700.132.751.464.840;-10.768.682.098.388.600;959.292.125.701.904;209.950.971.603.394;0.96225768327713;-0.83113068342209;0.02373158745468;-0.26333993673325
220;1612029737;6.621.912.384.033.200;-7.700.422.668.457.030;-10.766.758.728.027.300;958.467.388.153.076;208.503.198.623.657;0.95147842168808;-0.86857867240906;0.04148225113750;-0.21864309906960
221;1612038070;6.620.114.135.742.180;-7.700.733.947.753.900;-10.764.810.180.664.000;959.387.969.970.703;209.041.857.719.421;0.93712252378464;-0.79008382558823;0.09866603463888;-0.16901552677155
222;1612046403;6.617.132.568.359.370;-7.701.077.270.507.810;-10.761.694.335.937.500;958.226.299.285.889;209.788.537.025.452;0.96294420957565;-0.93703269958496;0.30675607919693;-0.02570388279855
223;1612054736;6.614.256.286.621.090;-7.701.367.950.439.450;-10.758.336.639.404.200;959.380.054.473.877;208.468.890.190.125;0.94555574655533;-0.87312519550323;0.36771795153618;-0.07982677221298
224;1612063069;6.610.476.684.570.310;-7.701.487.731.933.590;-10.754.668.426.513.600;961.710.453.033.447;209.747.815.132.141;0.93298107385635;-125.029.468.536.377;0.55065476894379;-0.21063864231110
225;1612071402;6.606.701.660.156.250;-7.701.334.381.103.510;-10.751.072.692.871.000;961.214.447.021.484;206.905.674.934.387;0.98339557647705;-156.788.563.728.333;0.65902864933014;-0.52602672576904
226;1612079735;6.603.226.470.947.260;-7.701.048.278.808.590;-10.747.950.744.628.900;957.214.260.101.318;208.369.612.693.787;0.93552917242050;-151.788.687.705.994;0.61264121532440;-0.71339493989944
227;1612088068;6.599.728.393.554.680;-7.700.795.745.849.600;-10.745.263.671.875.000;957.864.665.985.107;209.346.508.979.797;0.96958112716675;-148.656.070.232.391;0.65403395891190;-0.65965628623962
228;1612096401;6.595.988.464.355.460;-7.700.522.613.525.390;-10.741.946.411.132.800;957.043.075.561.523;208.496.737.480.164;0.92345845699310;-160.982.906.818.390;0.65527617931366;-0.67437160015106
229;1612104734;6.593.326.568.603.510;-7.700.507.354.736.320;-10.740.213.775.634.700;958.721.256.256.104;210.628.342.628.479;0.90923362970352;-150.691.103.935.242;0.32743960618973;-0.50536882877350
230;1612113067;6.590.137.481.689.450;-7.700.254.058.837.890;-10.737.378.692.626.900;960.849.857.330.322;209.192.180.633.545;0.86092078685760;-151.199.543.476.105;0.52734583616257;-0.71065413951874
231;1612121400;6.586.530.303.955.070;-7.699.806.213.378.900;-10.734.127.044.677.700;957.531.738.281.250;207.567.596.435.547;0.89128834009171;-189.006.173.610.687;0.68991947174072;-0.87899100780487
232;1612129733;6.583.715.820.312.500;-7.699.497.222.900.390;-10.732.033.538.818.300;955.417.346.954.346;205.699.110.031.128;0.90007734298706;-193.018.627.166.748;0.37103497982025;-0.84970098733902
233;1612138066;6.582.212.829.589.840;-7.699.275.970.458.980;-10.731.579.589.843.700;954.263.973.236.084;209.089.040.756.226;0.87338399887085;-167.421.019.077.301;0.09738531708717;-0.87171638011932
234;1612146399;6.580.132.293.701.170;-7.699.156.951.904.290;-10.730.207.824.707.000;956.339.931.488.037;208.552.837.371.826;0.90294885635376;-189.469.766.616.821;0.10117623209953;-0.72341001033783
235;1612154732;6.578.319.549.560.540;-7.699.314.117.431.640;-10.728.546.142.578.100;952.350.234.985.352;206.639.623.641.968;0.89963883161545;-212.781.310.081.482;-0.10895015299320;-0.44969636201859
236;1612163065;6.577.014.923.095.700;-7.699.597.930.908.200;-10.728.346.252.441.400;952.321.815.490.723;206.154.060.363.770;0.94301754236221;-232.997.322.082.520;-0.38713356852531;-0.40713828802109
237;1612171398;6.576.509.857.177.730;-7.700.038.146.972.650;-10.728.819.274.902.300;953.072.261.810.303;202.195.525.169.373;0.94904053211212;-205.312.180.519.104;-0.56083643436432;-0.29360315203667
238;1612179731;6.577.053.070.068.350;-7.700.435.638.427.730;-10.729.978.942.871.000;949.477.481.842.041;202.906.131.744.385;0.94265890121460;-170.248.854.160.309;-0.77776342630386;-0.43366178870201
239;1612188064;6.578.507.995.605.460;-7.700.955.963.134.760;-10.731.843.566.894.500;951.700.115.203.857;205.803.203.582.764;0.95372194051743;-146.898.913.383.484;-0.97355872392654;-0.36849918961525
240;1612196397;6.581.038.665.771.480;-7.701.638.031.005.850;-10.734.931.182.861.300;950.951.957.702.637;204.279.971.122.742;0.95929813385010;-157.413.566.112.518;-139.247.941.970.825;-0.33914524316788
241;1612204730;6.585.072.326.660.150;-7.702.492.523.193.350;-10.740.077.209.472.600;953.190.803.527.832;205.527.377.128.601;0.96411532163620;-153.192.329.406.738;-180.141.055.583.954;-0.30733239650726
242;1612213063;6.589.353.942.871.090;-7.703.247.070.312.500;-10.745.043.945.312.500;955.596.542.358.398;207.400.488.853.455;0.96611946821213;-167.123.913.764.954;-188.796.126.842.499;-0.46114587783813
243;1612221396;6.594.007.110.595.700;-7.704.071.044.921.870;-10.750.823.211.669.900;957.272.529.602.051;204.366.254.806.519;0.99080747365952;-160.608.959.197.998;-195.692.777.633.667;-0.40918740630150
244;1612229729;6.599.057.006.835.930;-7.704.682.922.363.280;-10.756.564.331.054.600;959.875.679.016.113;204.656.124.114.990;0.96285653114319;-165.539.693.832.397;-200.769.495.964.050;-0.70211184024811
245;1612238062;6.604.897.308.349.600;-7.705.228.424.072.260;-10.763.504.028.320.300;961.674.499.511.719;205.658.888.816.833;0.92744177579880;-168.568.575.382.233;-213.634.252.548.218;-0.84915035963058
246;1612246395;6.609.987.640.380.850;-7.705.528.259.277.340;-10.769.352.722.167.900;962.180.995.941.162;206.093.311.309.814;0.92575794458389;-173.286.712.169.647;-187.743.413.448.334;-105.006.849.765.778
247;1612254728;6.615.122.222.900.390;-7.705.866.241.455.070;-10.774.861.907.958.900;961.609.268.188.477;207.492.661.476.135;0.93835735321045;-164.002.823.829.651;-185.324.120.521.545;-0.98701888322830
248;1612263061;6.620.075.225.830.070;-7.706.161.499.023.430;-10.780.550.384.521.400;962.611.198.425.293;206.003.785.133.362;0.89133530855179;-170.763.719.081.879;-183.698.904.514.313;-103.423.881.530.762
249;1612271394;6.625.375.366.210.930;-7.706.517.028.808.590;-10.787.619.018.554.600;961.211.109.161.377;207.830.524.444.580;0.89138531684875;-153.594.481.945.038;-187.720.322.608.948;-0.98180651664734
250;1612279727;6.630.165.100.097.650;-7.706.904.602.050.780;-10.792.934.417.724.600;962.754.535.675.049;209.496.498.107.910;0.89630311727524;-146.874.594.688.416;-179.102.420.806.885;-0.89209264516830
251;1612288060;6.635.003.662.109.370;-7.707.232.666.015.620;-10.798.543.548.583.900;962.313.175.201.416;206.461.524.963.379;0.88593149185181;-164.507.412.910.461;-177.317.094.802.856;-0.95651227235794
252;1612296393;6.639.557.647.705.070;-7.707.562.255.859.370;-10.803.841.400.146.400;961.716.556.549.072;205.909.538.269.043;0.88106578588486;-173.230.338.096.619;-175.658.571.720.123;-0.95844620466232
253;1612304726;6.644.679.260.253.900;-7.707.788.848.876.950;-10.810.141.754.150.300;959.939.384.460.449;205.341.529.846.191;0.83995032310486;-195.788.800.716.400;-186.019.539.833.069;-112.714.159.488.678
254;1612313059;6.649.159.240.722.650;-7.708.048.248.291.010;-10.815.524.291.992.100;956.955.909.729.004;206.334.543.228.149;0.83462661504745;-192.069.637.775.421;-174.482.905.864.716;-103.808.093.070.984
255;1612321392;6.654.329.681.396.480;-7.708.271.026.611.320;-10.821.562.957.763.600;953.874.397.277.832;206.661.105.155.945;0.84897452592850;-190.671.074.390.411;-186.142.504.215.240;-112.947.237.491.608
256;1612329725;6.659.716.033.935.540;-7.708.465.576.171.870;-10.827.795.410.156.200;955.838.489.532.471;207.119.011.878.967;0.85278582572937;-182.579.565.048.218;-192.108.058.929.443;-119.573.652.744.293
257;1612338058;6.664.875.030.517.570;-7.708.830.261.230.460;-10.834.885.406.494.100;956.058.979.034.424;207.543.253.898.621;0.81037050485611;-188.221.108.913.422;-191.950.535.774.231;-0.96232694387436
258;1612346391;6.669.205.474.853.510;-7.709.210.968.017.570;-10.840.118.408.203.100;957.287.788.391.113;210.110.282.897.949;0.82409381866455;-192.398.762.702.942;-176.274.609.565.735;-0.88102728128433
259;1612354724;6.672.683.715.820.310;-7.709.405.517.578.120;-10.844.500.732.421.800;959.273.910.522.461;213.987.255.096.436;0.80938476324081;-233.108.758.926.392;-150.851.202.011.108;-101.479.756.832.123
260;1612363057;6.675.946.044.921.870;-7.709.629.821.777.340;-10.849.123.382.568.300;959.521.579.742.432;215.193.080.902.100;0.82836359739304;-249.166.297.912.598;-154.076.015.949.249;-0.98603266477585
261;1612371390;6.679.936.218.261.710;-7.709.860.992.431.640;-10.855.266.571.044.900;964.342.975.616.455;213.614.535.331.726;0.80982702970505;-290.012.049.674.988;-177.516.901.493.073;-106.918.954.849.243
262;1612379723;6.684.190.368.652.340;-7.710.072.326.660.150;-10.861.449.432.373.000;968.303.680.419.922;211.630.916.595.459;0.77338361740112;-313.003.373.146.057;-191.755.831.241.608;-116.537.082.195.282
263;1612388056;6.688.574.981.689.450;-7.710.264.587.402.340;-10.868.492.126.464.800;966.240.215.301.514;211.288.928.985.596;0.78351837396622;-337.485.408.782.959;-195.784.938.335.419;-120.251.142.978.668
264;1612396389;6.694.129.180.908.200;-7.710.402.679.443.350;-10.876.218.414.306.600;963.309.097.290.039;212.822.914.123.535;0.78830504417419;-337.016.749.382.019;-226.391.410.827.637;-140.253.305.435.181
265;1612404722;6.700.630.950.927.730;-7.710.581.207.275.390;-10.885.185.241.699.200;963.093.376.159.668;213.476.872.444.153;0.82477509975433;-357.335.257.530.212;-253.433.680.534.363;-144.854.903.221.130
266;1612413055;6.707.962.036.132.810;-7.710.846.710.205.070;-10.895.092.010.498.000;962.242.794.036.865;210.637.545.585.632;0.83576017618179;-379.153.442.382.812;-286.286.473.274.231;-148.543.357.849.121
267;1612421388;6.716.455.841.064.450;-7.711.111.450.195.310;-10.906.000.518.798.800;961.194.896.697.998;209.268.045.425.415;0.82656753063202;-362.378.668.785.095;-308.442.783.355.713;-158.215.296.268.463
268;1612429721;6.724.452.209.472.650;-7.711.423.492.431.640;-10.916.363.525.390.600;957.886.314.392.090;209.478.306.770.325;0.80200129747391;-352.440.333.366.394;-299.920.940.399.170;-146.796.464.920.044
269;1612438054;6.731.678.771.972.650;-7.711.669.158.935.540;-10.925.821.685.791.000;956.353.759.765.625;207.205.963.134.766;0.86409395933151;-362.025.213.241.577;-275.766.730.308.533;-144.373.357.295.990
270;1612446387;6.737.485.504.150.390;-7.711.859.893.798.820;-10.934.240.722.656.200;957.570.648.193.359;204.628.539.085.388;0.84811222553253;-388.528.275.489.807;-246.325.683.593.750;-139.770.495.891.571
271;1612454720;6.742.686.462.402.340;-7.711.873.626.708.980;-10.941.693.115.234.300;956.739.997.863.770;204.971.408.843.994;0.87644052505493;-415.981.626.510.620;-225.152.993.202.209;-153.607.296.943.665
272;1612463053;6.747.383.880.615.230;-7.711.740.875.244.140;-10.949.234.008.789.000;953.084.182.739.258;207.232.666.015.625;0.87660282850266;-418.286.895.751.953;-209.477.066.993.713;-166.919.016.838.074
273;1612471386;6.751.689.147.949.210;-7.711.526.489.257.810;-10.955.757.141.113.200;955.742.168.426.514;208.568.334.579.468;0.88530158996582;-422.992.229.461.670;-193.865.191.936.493;-168.998.897.075.653
274;1612479719;6.754.119.873.046.870;-7.711.330.413.818.350;-10.961.389.160.156.200;958.050.060.272.217;209.836.339.950.562;0.88462209701538;-467.376.518.249.512;-159.698.343.276.978;-154.127.252.101.898
275;1612488052;6.755.638.885.498.040;-7.711.161.041.259.760;-10.966.040.039.062.500;959.701.728.820.801;208.197.617.530.823;0.85162037611008;-442.758.750.915.527;-129.278.898.239.136;-136.881.208.419.800
276;1612496385;6.756.784.057.617.180;-7.710.907.745.361.320;-10.969.844.818.115.200;964.151.000.976.562;210.556.077.957.153;0.78946232795715;-407.728.719.711.304;-112.027.704.715.729;-141.335.511.207.581
277;1612504718;6.757.664.489.746.090;-7.710.324.859.619.140;-10.974.914.550.781.200;962.902.832.031.250;209.538.316.726.685;0.87309926748276;-424.677.658.081.055;-0.90150588750839;-174.495.708.942.413
278;1612513051;6.760.884.094.238.280;-7.709.865.570.068.350;-10.980.861.663.818.300;958.948.898.315.430;205.216.288.566.589;0.81805586814880;-409.455.060.958.862;-155.689.740.180.969;-186.183.488.368.988
279;1612521384;6.766.229.248.046.870;-7.709.739.685.058.590;-10.987.995.910.644.500;961.478.710.174.561;205.340.266.227.722;0.78413003683090;-352.976.989.746.094;-210.413.265.228.271;-163.820.970.058.441
280;1612529717;6.769.682.312.011.710;-7.709.550.476.074.210;-10.993.882.751.464.800;966.114.807.128.906;203.735.804.557.800;0.72273653745651;-374.263.715.744.019;-166.883.158.683.777;-155.180.013.179.779
281;1612538050;6.771.287.536.621.090;-7.709.500.122.070.310;-10.997.888.946.533.200;961.598.777.770.996;203.098.702.430.725;0.73844921588898;-361.112.022.399.902;-119.820.809.364.319;-117.113.387.584.686
282;1612546383;6.771.201.324.462.890;-7.709.579.467.773.430;-11.000.007.629.394.500;961.398.983.001.709;195.637.869.834.900;0.76568490266800;-358.170.223.236.084;-0.85686004161835;-0.87146013975143
283;1612554716;6.770.169.830.322.260;-7.709.490.966.796.870;-11.000.634.765.625.000;960.942.173.004.150;191.745.507.717.133;0.75886553525925;-336.108.756.065.369;-0.45935291051865;-0.91485089063644
284;1612563049;6.769.931.793.212.890;-7.709.241.485.595.700;-11.001.969.909.667.900;956.240.653.991.699;195.633.292.198.181;0.74322932958603;-284.900.736.808.777;-0.51334774494171;-115.442.085.266.113
285;1612571382;6.771.467.590.332.030;-7.708.918.762.207.030;-11.004.081.726.074.200;955.375.194.549.561;199.882.090.091.705;0.79169094562531;-245.506.048.202.515;-0.81098508834839;-137.116.849.422.455
286;1612579715;6.773.517.608.642.570;-7.708.417.510.986.320;-11.007.518.005.371.000;952.216.148.376.465;202.498.316.764.832;0.80101376771927;-255.887.484.550.476;-0.92084449529648;-165.184.915.065.765
287;1612588048;6.776.805.877.685.540;-7.708.029.937.744.140;-11.011.125.946.044.900;952.663.421.630.859;205.350.470.542.908;0.78448128700256;-269.529.652.595.520;-128.105.759.620.667;-163.581.490.516.663
288;1612596381;6.779.740.142.822.260;-7.707.573.699.951.170;-11.015.764.617.919.900;953.306.484.222.412;206.426.239.013.672;0.75163000822067;-290.352.749.824.524;-124.103.546.142.578;-172.586.166.858.673
289;1612604714;6.782.785.034.179.680;-7.707.199.096.679.680;-11.020.744.323.730.400;955.513.858.795.166;209.416.031.837.463;0.70905703306198;-319.878.220.558.167;-133.439.886.569.977;-164.576.554.298.401
290;1612613047;6.784.256.744.384.760;-7.706.642.150.878.900;-11.024.394.989.013.600;956.958.198.547.363;210.794.162.750.244;0.69002652168274;-350.400.137.901.306;-0.95028805732727;-173.836.112.022.400
291;1612621380;6.784.122.467.041.010;-7.705.886.077.880.850;-11.025.927.734.375.000;961.292.457.580.566;210.399.007.797.241;0.70361912250519;-368.780.922.889.709;-0.45688107609749;-177.078.890.800.476
292;1612629713;6.781.879.425.048.820;-7.705.084.228.515.620;-11.026.226.806.640.600;963.294.506.072.998;210.006.403.923.035;0.70837908983231;-404.100.418.090.820;-0.00840146932751;-166.349.089.145.660
293;1612638046;6.778.832.244.873.040;-7.704.373.931.884.760;-11.025.985.717.773.400;964.140.796.661.377;208.630.466.461.182;0.69101071357727;-429.659.605.026.245;0.14244076609612;-148.597.133.159.637
294;1612646379;6.773.968.505.859.370;-7.703.643.035.888.670;-11.023.978.424.072.200;965.711.212.158.203;208.032.321.929.932;0.70667624473572;-448.803.615.570.068;0.53713053464890;-135.008.800.029.755
295;1612654712;6.769.387.054.443.350;-7.702.790.069.580.070;-11.022.409.820.556.600;963.201.904.296.875;208.798.551.559.448;0.71311575174332;-468.618.869.781.494;0.51461565494537;-151.063.799.858.093
296;1612663045;6.766.572.570.800.780;-7.702.031.707.763.670;-11.022.837.066.650.300;960.366.535.186.768;207.190.036.773.682;0.78545069694519;-487.652.778.625.488;-0.05669710785151;-162.979.519.367.218
297;1612671378;6.766.208.648.681.640;-7.701.431.274.414.060;-11.025.745.391.845.700;962.199.401.855.469;208.221.483.230.591;0.72385036945343;-464.533.376.693.726;-0.67213034629822;-166.696.166.992.188
298;1612679711;6.767.576.599.121.090;-7.700.944.519.042.960;-11.030.283.355.712.800;962.506.103.515.625;206.561.636.924.744;0.75134730339050;-466.807.937.622.070;-120.401.000.976.562;-175.364.029.407.501
299;1612688044;6.769.772.338.867.180;-7.700.656.890.869.140;-11.035.708.618.164.000;962.395.763.397.217;204.975.748.062.134;0.75764411687851;-471.953.821.182.251;-148.461.389.541.626;-160.182.464.122.772
300;1612696377;6.772.981.262.207.030;-7.700.425.720.214.840;-11.042.160.034.179.600;960.062.408.447.266;202.328.014.373.779;0.77223002910614;-469.402.599.334.717;-180.148.756.504.059;-165.930.283.069.611
301;1612704710;6.776.573.944.091.790;-7.700.337.982.177.730;-11.049.140.930.175.700;960.249.805.450.439;202.516.841.888.428;0.81854903697968;-434.124.135.971.069;-185.181.963.443.756;-149.234.938.621.521
302;1612713043;6.780.171.966.552.730;-7.700.294.494.628.900;-11.055.489.349.365.200;959.078.884.124.756;202.579.689.025.879;0.82276314496994;-410.114.669.799.805;-186.215.507.984.161;-143.616.473.674.774
303;1612721376;6.784.181.213.378.900;-7.700.206.756.591.790;-11.062.203.216.552.700;958.968.257.904.053;202.433.204.650.879;0.84951359033585;-373.680.973.052.979;-183.088.004.589.081;-147.658.383.846.283
304;1612729709;6.787.203.216.552.730;-7.700.257.110.595.700;-11.067.619.323.730.400;955.987.453.460.693;205.562.877.655.029;0.88485997915268;-370.813.441.276.550;-167.193.078.994.751;-123.807.704.448.700
305;1612738042;6.791.458.892.822.260;-7.700.402.832.031.250;-11.073.640.441.894.500;956.228.542.327.881;206.503.200.531.006;0.87513077259064;-345.074.963.569.641;-194.181.513.786.316;-121.227.037.906.647
306;1612746375;6.795.928.955.078.120;-7.700.826.263.427.730;-11.080.339.050.292.900;955.001.926.422.119;211.639.332.771.301;0.89030236005783;-347.142.052.650.452;-216.184.163.093.567;-0.95136392116547
307;1612754708;6.800.434.875.488.280;-7.701.544.952.392.570;-11.086.400.604.248.000;955.633.258.819.580;215.717.196.464.539;0.88388454914093;-416.306.924.819.946;-241.630.625.724.792;-0.67077285051346
308;1612763041;6.805.541.229.248.040;-7.702.414.703.369.140;-11.094.653.320.312.500;959.345.054.626.465;215.636.539.459.229;0.91096657514572;-452.087.354.660.034;-274.701.142.311.096;-0.61255156993866
309;1612771374;6.810.353.088.378.900;-7.703.568.267.822.260;-11.102.439.117.431.600;961.265.182.495.117;218.007.731.437.683;0.88652241230011;-491.319.465.637.207;-284.681.701.660.156;-0.27481514215469
310;1612779707;6.814.133.453.369.140;-7.704.666.900.634.760;-11.109.912.109.375.000;961.790.084.838.867;214.791.154.861.450;0.83030635118484;-520.076.560.974.121;-265.353.226.661.682;-0.27140846848488
311;1612788040;6.817.220.306.396.480;-7.705.705.261.230.460;-11.116.822.814.941.400;959.654.808.044.434;208.862.900.733.948;0.79503017663956;-518.421.888.351.440;-241.017.150.878.906;-0.22958037257195
312;1612796373;6.819.456.481.933.590;-7.706.579.589.843.750;-11.122.467.041.015.600;961.979.866.027.832;203.529.262.542.725;0.82765424251556;-491.850.996.017.456;-209.384.846.687.317;-0.33156347274780
313;1612804706;6.821.714.019.775.390;-7.707.069.396.972.650;-11.127.873.992.919.900;965.392.684.936.523;200.353.908.538.818;0.83192795515060;-433.012.533.187.866;-176.411.628.723.145;-0.69492703676224
314;1612813039;6.822.807.312.011.710;-7.707.478.332.519.530;-11.131.393.432.617.100;965.800.094.604.492;196.417.236.328.125;0.81340056657791;-380.207.395.553.589;-135.545.408.725.739;-0.63438767194748
315;1612821372;6.823.107.910.156.250;-7.707.511.901.855.460;-11.134.107.971.191.400;966.315.174.102.783;193.553.841.114.044;0.76398360729218;-354.129.576.683.044;-0.89424413442612;-0.93064200878143
316;1612829705;6.821.601.104.736.320;-7.707.395.935.058.590;-11.134.600.830.078.100;962.875.843.048.096;193.176.746.368.408;0.77273344993591;-338.284.683.227.539;-0.36710324883461;-0.92331641912460
317;1612838038;6.819.919.586.181.640;-7.707.047.271.728.510;-11.134.838.867.187.500;964.196.968.078.613;194.297.146.797.180;0.80793035030365;-318.744.778.633.118;-0.14089109003544;-112.985.646.724.701
318;1612846371;6.816.436.004.638.670;-7.706.489.562.988.280;-11.132.757.568.359.300;963.064.289.093.018;198.532.247.543.335;0.75192743539810;-274.804.878.234.863;0.47305649518967;-115.689.241.886.139
319;1612854704;6.811.074.066.162.100;-7.705.743.408.203.120;-11.128.691.101.074.200;964.946.556.091.309;199.979.758.262.634;0.75459533929825;-244.265.007.972.717;113.941.073.417.664;-113.332.736.492.157
320;1612863037;6.804.069.519.042.960;-7.704.810.333.251.950;-11.122.422.790.527.300;963.418.674.468.994;203.145.670.890.808;0.75450026988983;-207.526.540.756.226;168.653.106.689.453;-115.238.451.957.703
321;1612871370;6.795.786.285.400.390;-7.703.726.959.228.510;-11.114.404.296.875.000;965.360.927.581.787;205.030.822.753.906;0.70809739828110;-189.081.728.458.405;215.575.814.247.131;-115.200.042.724.609
322;1612879703;6.785.869.598.388.670;-7.702.407.073.974.600;-11.104.788.970.947.200;965.978.050.231.934;213.419.628.143.311;0.73578619956970;-165.807.342.529.297;270.066.237.449.646;-123.853.790.760.040
323;1612888036;6.774.736.785.888.670;-7.701.011.657.714.840;-11.094.811.248.779.200;962.674.236.297.607;217.297.959.327.698;0.76189875602722;-220.509.076.118.469;296.597.456.932.068;-121.113.061.904.907
324;1612896369;6.764.188.385.009.760;-7.699.801.635.742.180;-11.085.312.652.587.800;958.281.230.926.514;216.030.716.896.057;0.78305572271347;-255.362.367.630.005;262.691.879.272.461;-111.453.938.484.192
325;1612904702;6.754.446.411.132.810;-7.698.729.705.810.540;-11.077.206.420.898.400;964.434.051.513.672;217.434.382.438.660;0.76064091920853;-268.219.470.977.783;236.667.823.791.504;-102.766.871.452.332
326;1612913035;6.742.652.130.126.950;-7.697.694.396.972.650;-11.066.907.501.220.700;965.872.573.852.539;216.883.063.316.345;0.80850219726562;-311.251.401.901.245;275.423.502.922.058;-0.82567495107651
327;1612921368;6.729.343.414.306.640;-7.696.550.750.732.420;-11.054.684.448.242.100;962.196.254.730.225;214.633.917.808.533;0.80604308843613;-329.145.479.202.271;318.744.826.316.833;-0.77447199821472
328;1612929701;6.713.304.901.123.040;-7.695.134.735.107.420;-11.040.592.193.603.500;961.624.336.242.676;212.714.219.093.323;0.82138371467590;-377.152.967.453.003;388.311.839.103.699;-0.83503693342209
329;1612938034;6.695.515.441.894.530;-7.693.349.456.787.100;-11.024.877.929.687.500;959.915.161.132.812;207.986.807.823.181;0.88363194465637;-408.720.016.479.492;447.245.121.002.197;-104.348.552.227.020
330;1612946367;6.677.659.606.933.590;-7.691.300.964.355.460;-11.009.369.659.423.800;959.118.843.078.613;207.218.933.105.469;0.91724956035614;-430.244.874.954.224;454.321.002.960.205;-135.381.484.031.677
331;1612954700;6.658.915.710.449.210;-7.688.817.596.435.540;-10.993.193.817.138.600;959.619.808.197.021;208.904.838.562.012;0.90341043472290;-454.365.777.969.360;497.113.370.895.386;-170.951.962.471.008
332;1612963033;6.638.225.555.419.920;-7.685.923.004.150.390;-10.975.339.508.056.600;957.752.132.415.771;210.282.731.056.213;0.89732158184052;-496.484.613.418.579;555.296.230.316.162;-198.770.332.336.426
333;1612971366;6.615.930.938.720.700;-7.682.628.631.591.790;-10.955.459.594.726.500;959.793.281.555.176;212.369.418.144.226;0.94381660223007;-539.265.441.894.531;611.501.407.623.291;-223.879.933.357.239
334;1612979699;6.591.323.089.599.600;-7.679.038.238.525.390;-10.934.239.959.716.700;959.782.123.565.674;214.855.527.877.808;0.92823505401611;-573.760.223.388.672;676.671.886.444.092;-232.622.122.764.587
335;1612988032;6.564.728.546.142.570;-7.675.046.539.306.640;-10.911.066.436.767.500;962.441.825.866.699;215.080.642.700.195;0.94357067346573;-585.104.608.535.767;750.640.439.987.183;-247.329.759.597.778
336;1612996365;6.535.610.961.914.060;-7.670.753.479.003.900;-10.885.359.954.833.900;964.809.131.622.314;216.624.093.055.725;0.97324407100677;-591.989.898.681.641;828.659.152.984.619;-249.650.478.363.037
337;1613004698;6.505.025.482.177.730;-7.666.213.989.257.810;-10.858.133.697.509.700;965.341.949.462.891;215.503.001.213.074;0.97803527116776;-571.198.844.909.668;889.464.664.459.229;-248.428.654.670.715
338;1613013031;6.473.812.866.210.930;-7.661.825.561.523.430;-10.830.155.944.824.200;965.149.497.985.840;222.294.640.541.077;102.424.061.298.370;-579.198.074.340.820;896.421.432.495.117;-221.794.939.041.138
339;1613021364;6.442.415.618.896.480;-7.657.707.977.294.920;-10.801.641.845.703.100;965.122.413.635.254;226.004.195.213.318;104.510.891.437.531;-592.225.503.921.509;890.612.220.764.160;-183.642.554.283.142
340;1613029697;6.409.901.428.222.650;-7.653.935.241.699.210;-10.772.778.320.312.500;967.096.805.572.510;226.995.110.511.780;100.659.096.240.997;-633.020.019.531.250;892.302.703.857.422;-131.767.320.632.935
341;1613038030;6.375.701.522.827.140;-7.650.339.508.056.640;-10.743.772.888.183.500;966.471.862.792.969;229.474.401.473.999;102.088.856.697.083;-686.862.325.668.335;920.742.034.912.109;-0.90842169523239
342;1613046363;6.338.986.587.524.410;-7.646.928.405.761.710;-10.711.534.118.652.300;963.559.818.267.822;229.709.720.611.572;0.99363952875137;-744.184.446.334.839;962.501.049.041.748;-0.38796600699425
343;1613054696;6.299.757.385.253.900;-7.643.357.086.181.640;-10.677.519.226.074.200;961.923.789.978.027;225.435.328.483.582;103.860.306.739.807;-799.704.694.747.925;1.028.207.969.665.520;-0.17983756959438
344;1613063029;6.257.757.949.829.100;-7.639.630.126.953.120;-10.640.769.958.496.000;961.119.842.529.297;220.483.827.590.942;102.832.508.087.158;-853.268.051.147.461;1.096.412.467.956.540;0.01593205891550
345;1613071362;6.214.070.129.394.530;-7.635.511.779.785.150;-10.603.284.454.345.700;960.891.532.897.949;215.890.717.506.409;103.616.654.872.894;-888.364.505.767.822;1.159.279.918.670.650;-0.09662970900536
346;1613079695;6.169.015.502.929.680;-7.630.825.805.664.060;-10.563.483.428.955.000;961.551.475.524.902;214.356.899.261.475;106.810.605.525.970;-866.418.266.296.387;1.231.184.196.472.160;-0.38694152235985
347;1613088028;6.122.677.993.774.410;-7.625.578.308.105.460;-10.522.287.750.244.100;961.609.363.555.908;211.029.291.152.954;109.267.008.304.596;-882.742.214.202.881;1.299.295.043.945.310;-0.68473267555237
348;1613096361;6.076.119.995.117.180;-7.619.707.489.013.670;-10.480.885.314.941.400;962.878.990.173.340;209.715.938.568.115;107.365.763.187.408;-862.017.822.265.625;1.346.709.728.240.960;-116.195.154.190.063
349;1613104694;6.028.895.950.317.380;-7.613.173.675.537.100;-10.438.810.729.980.400;961.010.265.350.342;210.283.708.572.388;110.894.119.739.532;-810.881.614.685.059;1.421.915.817.260.740;-153.353.750.705.719
350;1613113027;5.980.795.288.085.930;-7.606.290.435.791.010;-10.395.336.151.123.000;955.399.322.509.766;209.468.364.715.576;117.937.505.245.209;-808.706.855.773.926;1.469.391.632.080.070;-164.782.810.211.182
351;1613121360;5.933.678.436.279.290;-7.599.315.643.310.540;-10.351.876.831.054.600;950.183.963.775.635;209.278.821.945.190;116.523.218.154.907;-774.937.152.862.549;1.465.396.118.164.060;-165.441.119.670.868
352;1613129693;5.886.414.718.627.930;-7.592.323.303.222.650;-10.308.880.615.234.300;950.046.062.469.482;214.671.397.209.167;111.672.520.637.512;-766.855.812.072.754;1.475.746.536.254.880;-151.496.708.393.097
353;1613138026;5.837.550.354.003.900;-7.585.051.727.294.920;-10.264.279.937.744.100;952.807.426.452.637;219.519.400.596.619;117.682.778.835.297;-775.386.714.935.303;1.542.055.606.842.040;-136.628.937.721.252
354;1613146359;5.785.728.454.589.840;-7.577.499.389.648.430;-10.216.860.961.914.000;956.703.567.504.883;221.825.551.986.694;115.071.177.482.605;-802.089.405.059.814;1.633.674.812.316.890;-107.298.040.390.015
355;1613154692;5.731.109.237.670.890;-7.569.582.366.943.350;-10.166.819.000.244.100;963.288.307.189.941;223.050.665.855.408;117.499.792.575.836;-840.532.684.326.172;1.731.148.719.787.590;-0.81295758485794
356;1613163025;5.672.718.048.095.700;-7.561.217.498.779.290;-10.113.159.179.687.500;968.996.810.913.086;227.381.563.186.646;120.623.219.013.214;-869.098.949.432.373;1.855.504.798.889.160;-0.47624567151070
357;1613171358;5.612.982.559.204.100;-7.552.503.967.285.150;-10.057.891.082.763.600;967.549.037.933.350;225.602.436.065.674;128.678.357.601.166;-878.960.418.701.172;1.921.976.280.212.400;-0.33821049332619
358;1613179691;5.552.857.208.251.950;-7.543.508.148.193.350;-10.002.124.023.437.500;966.001.129.150.391;226.509.475.708.008;132.047.772.407.532;-837.204.170.227.051;1.965.133.857.727.050;-0.24551256000996
359;1613188024;5.492.284.393.310.540;-7.534.240.722.656.250;-9.946.095.275.878.900;963.635.349.273.682;223.231.339.454.651;130.194.652.080.536;-814.164.066.314.697;2.010.626.983.642.570;-0.10145801305771
360;1613196357;5.430.110.168.457.030;-7.524.398.803.710.930;-9.887.709.808.349.600;958.639.621.734.619;216.395.831.108.093;128.737.699.985.504;-784.346.580.505.371;2.104.619.979.858.390;-0.06693002581596
361;1613204690;5.365.844.726.562.500;-7.513.872.528.076.170;-9.827.061.462.402.340;963.194.942.474.365;216.170.716.285.706;132.392.191.886.902;-774.476.194.381.714;2.221.088.218.688.960;0.00366283743642
362;1613213023;5.298.577.117.919.920;-7.502.474.975.585.930;-9.763.462.829.589.840;962.999.534.606.934;209.168.124.198.914;146.640.813.350.677;-797.931.146.621.704;2.363.695.716.857.910;0.01977420039475
363;1613221356;5.229.769.897.460.930;-7.490.371.704.101.560;-9.698.234.558.105.460;964.562.511.444.092;204.919.314.384.460;151.448.249.816.895;-779.243.230.819.702;2.473.002.243.041.990;0.09920399636030
364;1613229689;5.158.863.830.566.400;-7.477.394.866.943.350;-9.630.175.018.310.540;963.680.267.333.984;201.763.963.699.341;155.228.674.411.774;-726.383.018.493.652;2.612.822.723.388.670;0.15970486402512
365;1613238022;5.085.552.978.515.620;-7.463.395.690.917.960;-9.559.318.542.480.460;969.089.508.056.641;203.411.483.764.648;168.517.708.778.381;-721.206.426.620.483;2.768.828.964.233.390;0.19515499472618
366;1613246355;5.007.965.850.830.070;-7.447.964.477.539.060;-9.484.077.453.613.280;976.509.666.442.871;206.162.714.958.191;171.051.037.311.554;-708.015.108.108.521;3.003.732.490.539.550;0.28278139233589
367;1613254688;4.926.070.404.052.730;-7.430.716.705.322.260;-9.404.001.617.431.640;985.965.251.922.607;209.890.508.651.733;184.302.771.091.461;-659.268.760.681.152;3.286.330.032.348.630;0.26262301206589
368;1613263021;4.836.623.001.098.630;-7.411.070.251.464.840;-9.316.580.963.134.760;988.604.450.225.830;218.877.863.883.972;208.899.021.148.682;-739.682.435.989.380;3.671.612.930.297.850;0.31866705417633
369;1613271354;4.742.190.933.227.530;-7.389.148.712.158.200;-9.224.504.852.294.920;975.166.511.535.645;217.957.735.061.646;217.346.000.671.387;-801.051.616.668.701;3.997.221.755.981.440;0.19917656481266
370;1613279687;4.645.291.519.165.030;-7.365.333.557.128.900;-9.129.621.887.207.030;961.188.602.447.510;209.925.746.917.725;228.028.059.005.737;-796.016.216.278.076;4.246.701.049.804.680;0.10783610492945
371;1613288020;4.546.136.856.079.100;-7.339.570.617.675.780;-9.032.534.790.039.060;944.886.779.785.156;197.413.933.277.130;250.498.843.193.054;-828.577.041.625.977;4.495.784.759.521.480;0.01086045429111
372;1613296353;4.447.327.804.565.430;-7.312.362.670.898.430;-8.934.512.329.101.560;917.979.812.622.070;181.995.069.980.621;255.378.270.149.231;-692.895.841.598.511;4.674.909.210.205.070;0.16508404910564
373;1613304686;4.350.241.470.336.910;-7.284.068.298.339.840;-8.836.595.916.748.040;893.564.414.978.027;176.289.820.671.082;260.661.363.601.685;-516.843.795.776.367;4.803.329.467.773.430;0.44028398394585
374;1613313019;4.253.367.614.746.090;-7.254.712.677.001.950;-8.738.540.649.414.060;856.631.755.828.857;170.932.984.352.112;273.098.993.301.392;-491.232.109.069.824;4.934.200.668.334.960;0.82347381114960
375;1613321352;4.157.680.892.944.330;-7.224.841.308.593.750;-8.641.407.012.939.450;812.205.886.840.820;170.320.940.017.700;260.780.763.626.099;-473.563.385.009.766;4.994.792.175.292.960;144.029.164.314.270
376;1613329685;4.062.644.958.496.090;-7.194.730.377.197.260;-8.545.311.737.060.540;764.000.892.639.160;177.591.180.801.392;258.839.058.876.038;-531.782.197.952.271;5.023.764.801.025.390;221.742.939.949.036
377;1613338018;3.968.056.488.037.100;-7.164.164.733.886.710;-8.450.948.333.740.230;704.938.983.917.236;181.560.218.334.198;255.726.528.167.725;-693.846.368.789.673;5.055.211.257.934.570;265.832.829.475.403
378;1613346351;3.876.988.220.214.840;-7.133.737.945.556.640;-8.361.975.097.656.250;633.889.722.824.097;167.786.443.233.490;239.800.763.130.188;-904.134.559.631.348;4.942.354.583.740.230;243.351.125.717.163
379;1613354684;3.792.362.213.134.760;-7.104.012.298.583.980;-8.280.817.413.330.070;564.079.904.556.274;153.071.343.898.773;213.440.871.238.708;-1.036.035.251.617.430;4.716.812.133.789.060;176.354.372.501.373
380;1613363017;3.714.985.656.738.280;-7.074.955.749.511.710;-8.207.838.439.941.400;491.355.037.689.209;140.275.597.572.327;167.870.438.098.907;-1.110.247.230.529.780;4.481.739.425.659.180;0.74760413169861
381;1613371350;3.645.049.667.358.390;-7.046.905.517.578.120;-8.142.704.772.949.210;428.555.345.535.278;124.694.657.325.745;125.399.482.250.214;-1.119.639.778.137.200;4.220.341.873.168.940;-0.12311501801014
382;1613379683;3.579.912.948.608.390;-7.018.733.215.332.030;-8.082.604.980.468.750;363.012.790.679.932;113.617.706.298.828;103.379.034.996.033;-1.125.689.888.000.480;4.132.495.117.187.500;-106.098.175.048.828
383;1613388016;3.523.071.670.532.220;-6.990.525.054.931.640;-8.028.857.421.875.000;303.326.463.699.341;109.692.597.389.221;0.74530184268951;-858.641.624.450.684;4.004.376.983.642.570;-248.630.094.528.198
384;1613396349;3.472.558.593.750.000;-6.961.846.923.828.120;-7.980.271.148.681.640;254.938.483.238.220;123.646.640.777.588;0.59962183237076;-691.269.016.265.869;3.946.508.789.062.500;-394.522.571.563.721
385;1613404682;3.429.051.589.965.820;-6.933.045.196.533.200;-7.938.389.587.402.340;204.268.193.244.934;117.887.353.897.095;0.45908606052399;-614.298.057.556.152;3.816.485.214.233.390;-579.109.144.210.815
386;1613413015;3.393.602.752.685.540;-6.904.563.140.869.140;-7.902.526.092.529.290;178.672.516.345.978;106.127.369.403.839;0.12262309342623;-330.996.489.524.841;3.657.768.249.511.710;-724.964.475.631.714
387;1613421348;3.363.941.955.566.400;-6.876.196.289.062.500;-7.868.955.993.652.340;189.132.249.355.316;101.801.133.155.823;0.31386575102806;0.99160516262054;3.606.022.644.042.960;-762.123.012.542.725
388;1613429681;3.332.717.514.038.080;-6.846.974.945.068.350;-7.831.750.488.281.250;226.410.007.476.807;112.360.394.001.007;0.72381639480591;310.250.234.603.882;3.793.242.263.793.940;-650.880.241.394.043
389;1613438014;3.292.762.756.347.650;-6.818.054.199.218.750;-7.786.693.572.998.040;271.695.470.809.937;113.497.388.362.885;0.69742792844772;129.677.379.131.317;3.968.370.437.622.070;-298.471.617.698.669
390;1613446347;3.237.273.406.982.420;-6.788.514.709.472.650;-7.729.249.572.753.900;343.087.840.080.261;127.147.686.481.476;103.654.992.580.414;-365.985.751.152.039;4.346.420.288.085.930;184.858.238.697.052
391;1613454680;3.159.332.084.655.760;-6.755.139.160.156.250;-7.654.528.808.593.750;404.627.180.099.487;137.103.641.033.173;210.653.090.476.990;-1.156.194.877.624.510;5.168.196.868.896.480;688.581.514.358.521
392;1613463013;3.062.590.217.590.330;-6.715.800.476.074.210;-7.567.436.218.261.710;440.715.026.855.469;133.305.430.412.292;302.605.819.702.148;-2.063.835.334.777.830;6.091.244.888.305.660;932.392.501.831.055
393;1613471346;2.955.959.320.068.350;-6.670.388.793.945.310;-7.477.057.647.705.070;456.043.624.877.930;111.095.988.750.458;334.738.230.705.261;-2.918.078.422.546.380;6.816.406.250.000.000;870.691.013.336.182
394;1613479679;2.845.368.576.049.800;-6.619.794.464.111.320;-7.388.736.724.853.510;491.200.685.501.099;109.012.782.573.700;372.917.008.399.963;-3.655.251.312.255.850;7.333.747.863.769.530;685.507.583.618.164
395;1613488012;2.732.954.406.738.280;-6.567.923.736.572.260;-7.303.447.723.388.670;623.546.361.923.218;142.871.713.638.306;395.331.907.272.339;-4.244.450.759.887.690;7.423.947.906.494.140;702.846.336.364.746
396;1613496345;2.642.988.204.956.050;-6.537.689.208.984.370;-7.236.579.895.019.530;982.587.814.331.055;223.904.919.624.329;417.193.174.362.183;-3.593.123.626.708.980;4.709.616.851.806.640;1.250.337.219.238.280
397;1613504678;2.591.685.295.104.980;-6.531.350.708.007.810;-7.195.475.006.103.510;1.421.545.124.053.950;268.970.847.129.822;199.329.924.583.435;-1.773.387.336.730.950;1.560.449.600.219.720;1.437.793.254.852.290
398;1613513011;2.581.156.921.386.710;-6.533.621.978.759.760;-7.182.524.871.826.170;1.627.698.326.110.840;361.630.153.656.006;0.61819744110107;0.48631188273430;0.08275959640741;628.242.921.829.224
399;1613521344;2.585.905.265.808.100;-6.512.823.486.328.120;-7.190.996.551.513.670;1.515.869.808.197.020;316.220.307.350.159;253.954.029.083.252;-453.429.937.362.671;2.031.366.539.001.460;-1.545.293.903.350.830
400;1613529677;2.610.508.918.762.200;-6.482.098.388.671.870;-7.226.058.197.021.480;1.175.876.045.227.050;286.097.764.968.872;479.667.520.523.071;-959.728.336.334.229;2.505.092.811.584.470;-3.289.531.326.293.940
401;1613538010;2.668.978.691.101.070;-6.473.696.136.474.600;-7.296.881.103.515.620;1.108.665.943.145.750;317.405.652.999.878;517.447.757.720.947;-771.948.766.708.374;-737.000.560.760.498;-3.766.315.078.735.350
402;1613546343;2.726.528.930.664.060;-6.477.126.312.255.850;-7.365.838.623.046.870;1.247.762.680.053.710;366.908.073.425.293;515.934.658.050.537;-678.519.344.329.834;-1.997.462.081.909.180;-3.033.251.953.125.000
403;1613554676;2.760.969.543.457.030;-6.479.665.374.755.850;-7.412.179.565.429.680;1.223.827.743.530.270;383.049.130.439.758;519.560.670.852.661;-998.033.618.927.002;-1.391.686.153.411.860;-2.036.642.646.789.550
404;1613563009;2.779.931.259.155.270;-6.481.288.146.972.650;-7.444.791.412.353.510;1.194.325.637.817.380;332.583.045.959.473;514.491.510.391.235;-1.365.696.334.838.860;-976.644.229.888.916;-1.459.004.020.690.910
405;1613571342;2.782.177.162.170.410;-6.479.310.607.910.150;-7.460.780.334.472.650;1.173.892.116.546.630;224.577.450.752.258;556.935.453.414.917;-1.566.324.996.948.240;-200.870.728.492.737;-907.252.597.808.838
406;1613579675;2.769.458.389.282.220;-6.478.894.805.908.200;-7.458.766.937.255.850;1.140.655.517.578.120;127.083.396.911.621;627.844.142.913.818;-1.407.935.523.986.810;0.62817651033401;-0.06616158038378
407;1613588008;2.749.296.379.089.350;-6.486.233.520.507.810;-7.443.373.870.849.600;1.150.374.221.801.750;0.70745939016342;561.254.739.761.353;-848.003.101.348.877;-446.038.770.675.659;1.030.070.304.870.600
408;1613596341;2.725.597.572.326.660;-6.501.609.802.246.090;-7.417.564.392.089.840;1.266.736.793.518.060;0.64116901159286;506.701.803.207.397;-138.320.767.879.486;-1.064.811.038.970.940;1.939.193.153.381.340
409;1613604674;2.698.926.925.659.180;-6.521.548.461.914.060;-7.384.795.379.638.670;1.353.990.936.279.290;127.773.082.256.317;487.186.098.098.755;266.201.257.705.688;-1.404.510.211.944.580;2.489.372.444.152.830
410;1613613007;2.674.078.750.610.350;-6.542.786.407.470.700;-7.353.001.403.808.590;1.369.785.404.205.320;219.890.499.114.990;461.679.267.883.301;384.818.291.664.124;-1.582.798.385.620.110;2.498.288.917.541.500
411;1613621340;2.656.491.661.071.770;-6.564.054.870.605.460;-7.329.191.589.355.460;1.374.449.348.449.700;309.372.973.442.078;492.745.590.209.961;390.010.285.377.502;-1.780.058.670.043.940;2.128.559.684.753.410
412;1613629673;2.650.551.033.020.020;-6.584.684.753.417.960;-7.318.395.233.154.290;1.372.530.841.827.390;344.166.922.569.275;502.574.729.919.434;368.363.642.692.566;-2.006.598.472.595.210;1.507.972.431.182.860
413;1613638006;2.659.155.082.702.630;-6.604.399.871.826.170;-7.323.844.146.728.510;1.372.461.700.439.450;340.945.053.100.586;507.205.677.032.471;335.428.810.119.629;-2.264.974.212.646.480;744.777.774.810.791
414;1613646339;2.678.448.295.593.260;-6.621.952.819.824.210;-7.343.048.095.703.120;1.386.821.460.723.870;316.541.814.804.077;498.191.165.924.072;107.383.906.841.278;-2.330.179.595.947.260;0.38156265020370
415;1613654672;2.697.699.928.283.690;-6.632.138.061.523.430;-7.365.201.568.603.510;1.372.971.534.729.000;290.960.407.257.080;496.936.178.207.397;-222.848.987.579.346;-1.603.143.882.751.460;-476.020.145.416.260
416;1613663005;2.710.688.018.798.820;-6.634.646.606.445.310;-7.383.972.930.908.200;1.319.841.194.152.830;266.908.478.736.877;521.228.408.813.477;-604.580.545.425.415;-708.592.271.804.810;-742.923.021.316.528
417;1613671338;2.719.466.400.146.480;-6.634.045.410.156.250;-7.400.604.248.046.870;1.302.836.990.356.440;255.766.439.437.866;540.582.513.809.204;-874.681.472.778.320;-331.124.210.357.666;-819.705.581.665.039
418;1613679671;2.722.701.835.632.320;-6.630.495.452.880.850;-7.412.592.315.673.820;1.316.578.197.479.240;247.609.019.279.480;535.959.291.458.130;-1.029.217.338.562.010;0.85126364231110;-782.823.705.673.218
419;1613688004;2.720.585.823.059.080;-6.625.230.407.714.840;-7.418.859.100.341.790;1.309.102.821.350.090;238.661.336.898.804;542.688.751.220.703;-1.042.459.869.384.760;393.598.651.885.986;-632.032.680.511.475
420;1613696337;2.715.991.210.937.500;-6.621.712.493.896.480;-7.421.309.661.865.230;1.287.626.838.684.080;250.654.482.841.492;554.054.546.356.201;-920.281.124.114.990;291.570.687.294.006;-372.359.299.659.729
421;1613704670;2.710.314.941.406.250;-6.621.901.702.880.850;-7.422.100.830.078.120;1.271.727.848.052.970;272.901.654.243.469;550.867.700.576.782;-868.309.879.302.979;-0.66686666011810;-0.98166567087173
422;1613713003;2.702.753.067.016.600;-6.625.216.674.804.680;-7.422.302.246.093.750;1.251.266.193.389.890;283.512.306.213.379;539.023.208.618.164;-1.029.568.099.975.580;-388.315.725.326.538;0.97948843240738
423;1613721336;2.692.328.453.063.960;-6.629.750.823.974.600;-7.421.609.497.070.310;1.208.453.178.405.760;285.100.555.419.922;529.642.391.204.834;-1.274.968.242.645.260;-498.905.229.568.481;202.250.075.340.271
424;1613729669;2.679.243.469.238.280;-6.634.751.892.089.840;-7.420.030.212.402.340;1.159.432.888.031.000;277.161.312.103.271;520.878.696.441.650;-1.496.850.013.732.910;-530.675.888.061.523;264.816.665.649.414
425;1613738002;2.664.557.647.705.070;-6.639.971.160.888.670;-7.418.454.742.431.640;1.119.368.076.324.460;262.560.677.528.381;513.803.052.902.222;-1.689.208.030.700.680;-554.671.287.536.621;274.793.434.143.066
426;1613746335;2.649.659.919.738.770;-6.644.480.895.996.090;-7.417.800.140.380.850;1.090.846.538.543.700;234.559.440.612.793;500.483.798.980.713;-1.815.744.972.229.000;-499.662.208.557.129;195.952.820.777.893
427;1613754668;2.636.018.562.316.890;-6.647.883.605.957.030;-7.419.107.818.603.510;1.058.850.097.656.250;205.341.839.790.344;478.404.092.788.696;-1.881.416.130.065.910;-422.720.813.751.221;0.51115781068802
428;1613763001;2.623.533.630.371.090;-6.649.742.126.464.840;-7.421.915.435.791.010;1.024.485.492.706.290;174.318.909.645.081;451.593.780.517.578;-1.907.424.736.022.940;-289.055.466.651.917;-0.96070057153702
429;1613771334;2.611.806.678.771.970;-6.649.932.098.388.670;-7.425.614.929.199.210;992.320.060.729.980;155.159.437.656.403;427.417.802.810.669;-1.914.471.244.812.010;-128.413.164.615.631;-222.811.889.648.438
430;1613779667;2.599.832.725.524.900;-6.648.040.771.484.370;-7.428.900.909.423.820;957.992.839.813.232;150.255.084.037.781;399.445.319.175.720;-1.898.991.203.308.100;105.731.761.455.536;-315.785.169.601.440
431;1613788000;2.586.335.945.129.390;-6.644.057.464.599.600;-7.431.338.500.976.560;920.005.607.604.980;146.020.567.417.145;373.832.988.739.014;-1.987.829.017.639.160;349.087.548.255.920;-387.615.251.541.138
432;1613796333;2.571.089.172.363.280;-6.638.646.697.998.040;-7.432.772.064.208.980;874.782.276.153.564;140.529.155.731.201;363.214.135.169.983;-2.087.508.773.803.710;525.238.084.793.091;-418.991.470.336.914
433;1613804666;2.554.372.406.005.850;-6.632.903.289.794.920;-7.433.383.941.650.390;845.162.868.499.756;145.990.335.941.315;356.459.426.879.883;-2.173.651.504.516.600;579.163.646.697.998;-396.878.600.120.544
434;1613812999;2.536.046.791.076.660;-6.626.822.662.353.510;-7.433.151.245.117.180;815.266.799.926.758;134.809.529.781.342;346.500.563.621.521;-2.273.752.212.524.410;634.195.899.963.379;-377.611.613.273.621
435;1613821332;2.517.555.809.020.990;-6.621.013.641.357.420;-7.432.735.443.115.230;777.874.231.338.501;126.978.290.081.024;329.095.721.244.812;-2.274.472.236.633.300;609.985.399.246.216;-352.076.816.558.838
436;1613829665;2.498.711.776.733.390;-6.615.126.037.597.650;-7.431.903.839.111.320;735.814.476.013.184;115.262.711.048.126;297.064.614.295.959;-2.270.066.452.026.360;627.659.177.780.151;-337.307.596.206.665
437;1613837998;2.480.416.107.177.730;-6.609.095.764.160.150;-7.431.069.183.349.600;688.687.610.626.221;0.98207861185074;283.585.929.870.605;-2.204.187.965.393.060;643.999.814.987.183;-341.729.950.904.846
438;1613846331;2.464.616.394.042.960;-6.603.635.406.494.140;-7.432.034.301.757.810;644.814.014.434.814;0.79230016469955;277.594.757.080.078;-2.101.841.926.574.700;545.708.847.045.898;-390.941.214.561.462
439;1613854664;2.452.048.873.901.360;-6.598.820.495.605.460;-7.435.419.464.111.320;608.345.508.575.439;0.67324733734131;266.629.457.473.755;-1.979.482.841.491.690;427.235.317.230.225;-464.835.739.135.742
440;1613862997;2.441.577.529.907.220;-6.593.892.669.677.730;-7.440.058.135.986.320;573.139.953.613.281;0.60917288064957;244.612.240.791.321;-1.865.200.996.398.920;414.954.566.955.566;-525.757.980.346.680
441;1613871330;2.432.342.147.827.140;-6.588.892.364.501.950;-7.445.758.819.580.070;532.375.955.581.665;0.57082110643387;224.432.563.781.738;-1.833.436.775.207.520;401.489.210.128.784;-576.056.623.458.862
442;1613879663;2.424.717.712.402.340;-6.583.876.800.537.100;-7.452.746.582.031.250;497.017.383.575.439;0.55563187599182;213.804.221.153.259;-1.780.233.573.913.570;378.100.800.514.221;-634.531.354.904.175
443;1613887996;2.419.302.749.633.780;-6.578.630.828.857.420;-7.461.403.656.005.850;462.881.898.880.005;0.56705486774445;204.896.736.145.020;-1.697.654.533.386.230;370.100.212.097.168;-720.970.535.278.320
444;1613896329;2.414.790.344.238.280;-6.572.421.264.648.430;-7.470.777.893.066.400;427.491.044.998.169;0.55461418628693;187.921.810.150.146;-1.667.175.865.173.340;461.023.044.586.182;-800.758.838.653.564
445;1613904662;2.410.152.435.302.730;-6.564.462.280.273.430;-7.479.522.705.078.120;384.870.910.644.531;0.45089814066887;183.373.701.572.418;-1.612.999.534.606.930;665.294.218.063.354;-858.834.171.295.166
446;1613912995;2.405.368.614.196.770;-6.555.872.344.970.700;-7.487.648.010.253.900;358.490.490.913.391;0.29841202497482;194.768.273.830.414;-1.561.866.855.621.330;747.278.881.072.998;-862.421.226.501.465
447;1613921328;2.402.110.099.792.480;-6.546.450.042.724.600;-7.495.977.783.203.120;353.293.323.516.846;0.14713342487812;198.365.354.537.964;-1.400.626.564.025.870;834.191.799.163.818;-913.354.015.350.342
448;1613929661;2.400.479.507.446.280;-6.535.904.693.603.510;-7.503.764.343.261.710;372.872.662.544.250;0.19922113418579;231.630.635.261.536;-1.145.352.172.851.560;968.284.797.668.457;-944.362.354.278.564
449;1613937994;2.400.136.566.162.100;-6.524.418.640.136.710;-7.511.272.430.419.920;412.719.917.297.363;0.22271606326103;275.355.482.101.440;-959.522.342.681.885;1.076.119.613.647.460;-978.638.172.149.658
450;1613946327;2.401.268.196.105.950;-6.510.031.890.869.140;-7.517.168.426.513.670;460.355.567.932.129;0.40163379907608;269.319.820.404.053;-606.235.361.099.243;1.426.527.595.520.020;-1.047.847.938.537.590
451;1613954660;2.404.707.908.630.370;-6.492.937.469.482.420;-7.521.639.251.708.980;508.485.746.383.667;0.58358031511307;287.247.395.515.442;-173.590.278.625.488;1.751.887.512.207.030;-1.116.804.027.557.370
452;1613962993;2.409.196.853.637.690;-6.475.196.075.439.450;-7.524.443.817.138.670;581.880.331.039.429;0.77455747127533;318.859.171.867.371;133.945.858.478.546;1.855.932.998.657.220;-1.073.354.721.069.330
453;1613971326;2.412.405.204.772.940;-6.458.081.817.626.950;-7.523.730.468.750.000;687.027.883.529.663;106.260.240.077.972;310.497.426.986.694;362.463.378.906.250;1.859.977.340.698.240;-879.547.214.508.057
454;1613979659;2.411.623.191.833.490;-6.444.483.947.753.900;-7.517.607.879.638.670;831.468.486.785.889;132.569.503.784.180;356.882.643.699.646;469.406.604.766.846;1.588.851.451.873.770;-452.556.324.005.127
455;1613987992;2.407.967.567.443.840;-6.438.507.080.078.120;-7.506.668.853.759.760;979.479.122.161.865;165.114.057.064.056;392.098.665.237.427;645.221.328.735.352;856.490.135.192.871;150.600.183.010.101
456;1613996325;2.404.554.176.330.560;-6.441.365.051.269.530;-7.491.487.884.521.480;1.133.697.128.295.890;205.062.913.894.653;320.001.292.228.699;1.133.189.392.089.840;-0.21478821337223;784.371.995.925.903
457;1614004658;2.401.867.103.576.660;-6.450.412.750.244.140;-7.471.938.323.974.600;1.290.437.412.261.960;253.875.327.110.291;404.008.913.040.161;1.693.854.713.439.940;-610.263.252.258.301;1.293.949.794.769.280
458;1614012991;2.400.342.369.079.590;-6.461.775.207.519.530;-7.451.475.524.902.340;1.417.766.857.147.210;298.203.659.057.617;492.936.038.970.947;1.934.475.326.538.080;-846.057.891.845.703;1.444.118.690.490.720
459;1614021324;2.406.186.294.555.660;-6.474.414.825.439.450;-7.436.622.619.628.900;1.543.335.914.611.810;333.199.477.195.740;547.189.426.422.119;2.212.753.868.103.020;-1.104.218.959.808.350;1.239.655.399.322.510
460;1614029657;2.420.241.546.630.850;-6.487.806.701.660.150;-7.430.403.900.146.480;1.682.253.646.850.580;341.972.732.543.945;636.133.098.602.295;2.261.827.850.341.790;-1.366.178.417.205.810;872.595.500.946.045
461;1614037990;2.444.262.886.047.360;-6.501.075.744.628.900;-7.435.115.814.208.980;1.836.470.222.473.140;332.663.059.234.619;648.868.799.209.595;2.270.454.978.942.870;-1.579.242.897.033.690;363.381.695.747.375
462;1614046323;2.482.828.330.993.650;-6.512.955.474.853.510;-7.452.156.829.833.980;1.999.625.015.258.780;397.418.403.625.488;685.394.573.211.670;2.673.407.554.626.460;-1.684.298.896.789.550;-263.988.232.612.610
463;1614054656;2.532.070.541.381.830;-6.519.989.776.611.320;-7.478.637.695.312.500;2.070.214.843.750.000;522.898.864.746.094;762.266.111.373.901;2.925.393.295.288.080;-1.360.027.599.334.710;-925.305.080.413.818
464;1614062989;2.589.883.804.321.280;-6.529.195.404.052.730;-7.511.851.501.464.840;2.063.077.545.166.010;659.811.305.999.756;817.032.432.556.152;3.218.346.023.559.570;-1.746.973.991.394.040;-1.102.134.609.222.410
465;1614071322;2.652.901.649.475.090;-6.549.840.545.654.290;-7.549.555.969.238.280;2.032.755.279.541.010;736.034.154.891.968;806.635.570.526.123;3.348.377.990.722.650;-3.084.252.929.687.500;-670.265.579.223.633
466;1614079655;2.725.755.310.058.590;-6.584.350.585.937.500;-7.598.654.937.744.140;2.078.343.391.418.450;664.001.989.364.624;743.468.236.923.218;3.273.757.934.570.310;-4.820.760.726.928.710;-366.342.329.978.943
467;1614087988;2.810.888.481.140.130;-6.637.588.500.976.560;-7.661.235.046.386.710;2.213.536.071.777.340;555.618.762.969.971;717.904.758.453.369;3.250.328.445.434.570;-7.099.970.245.361.320;200.511.860.847.473
468;1614096321;2.896.419.525.146.480;-6.698.991.394.042.960;-7.727.833.557.128.900;2.345.569.992.065.430;480.809.879.302.979;637.681.007.385.254;2.824.640.464.782.710;-8.013.861.083.984.370;666.379.070.281.982
469;1614104654;2.976.786.994.934.080;-6.759.822.845.458.980;-7.794.136.047.363.280;2.391.318.702.697.750;542.208.194.732.666;606.550.073.623.657;2.204.047.393.798.820;-7.897.032.165.527.340;828.050.327.301.025
470;1614112987;3.061.733.818.054.190;-6.824.067.687.988.280;-7.870.040.130.615.230;2.463.091.659.545.890;593.689.632.415.771;511.129.951.477.051;1.653.408.432.006.830;-8.414.936.065.673.820;842.781.734.466.553
471;1614121320;3.151.466.369.628.900;-6.890.727.233.886.710;-7.955.056.762.695.310;2.550.930.023.193.350;592.481.803.894.043;461.632.537.841.797;1.170.591.354.370.110;-8.804.534.912.109.370;860.329.055.786.133
472;1614129653;3.248.320.770.263.670;-6.959.700.012.207.030;-8.050.843.811.035.150;2.608.445.930.480.950;588.773.250.579.834;375.660.896.301.270;773.491.716.384.888;-9.206.092.834.472.650;857.594.108.581.543
473;1614137986;3.350.762.939.453.120;-7.027.646.636.962.890;-8.153.125.762.939.450;2.610.716.056.823.730;651.660.633.087.158;360.074.520.111.084;664.029.693.603.516;-9.160.974.121.093.750;833.720.207.214.355
474;1614146319;3.461.502.075.195.310;-7.097.456.359.863.280;-8.265.012.359.619.140;2.474.634.170.532.220;774.638.557.434.082;383.260.583.877.563;522.521.734.237.671;-9.463.667.297.363.280;926.597.118.377.686
475;1614154652;3.598.313.903.808.590;-7.175.039.672.851.560;-8.402.893.829.345.700;2.293.095.397.949.210;816.124.248.504.639;252.452.635.765.076;639.506.912.231.445;-10.682.815.551.757.800;988.468.456.268.311
476;1614162985;3.745.504.379.272.460;-7.251.844.024.658.200;-8.554.355.621.337.890;2.104.982.185.363.770;665.665.388.107.300;187.386.918.067.932;263.434.863.090.515;-10.750.480.651.855.400;965.097.999.572.754
477;1614171318;3.899.177.551.269.530;-7.327.817.535.400.390;-8.717.003.631.591.790;1.819.299.316.406.250;383.950.543.403.625;172.621.297.836.304;-314.127.230.644.226;-10.742.396.545.410.100;1.055.842.399.597.160
478;1614179651;4.085.991.287.231.440;-7.410.546.875.000.000;-8.913.105.010.986.320;1.501.206.111.907.950;164.845.633.506.775;205.192.136.764.526;-268.016.672.134.399;-11.882.553.863.525.300;1.227.165.508.270.260
479;1614187984;4.326.874.923.706.050;-7.505.009.460.449.210;-9.161.718.750.000.000;1.190.540.599.822.990;0.25626772642136;346.244.144.439.697;0.46475258469582;-13.758.583.068.847.600;1.627.735.328.674.310
480;1614196317;4.676.750.183.105.460;-7.619.114.685.058.590;-9.514.979.553.222.650;817.945.289.611.816;-166.495.811.939.240;426.426.553.726.196;819.930.744.171.143;-17.149.925.231.933.500;2.162.613.105.773.920
481;1614204650;5.163.002.395.629.880;-7.742.412.567.138.670;-9.994.215.393.066.400;510.991.573.333.740;-310.341.286.659.241;532.721.281.051.636;2.256.664.657.592.770;-19.623.269.653.320.300;2.538.845.825.195.310
482;1614212983;5.756.938.934.326.170;-7.853.530.120.849.600;-10.564.197.540.283.200;182.638.072.967.529;-361.189.699.172.974;725.220.489.501.953;4.271.939.086.914.060;-19.352.813.720.703.100;2.528.408.622.741.690
483;1614221316;6.422.308.349.609.370;-7.935.911.560.058.590;-11.195.774.078.369.100;-178.025.639.057.159;-359.695.029.258.728;877.101.802.825.928;5.360.296.630.859.370;-17.522.399.902.343.700;1.483.187.675.476.070
484;1614229649;7.002.136.230.468.750;-7.982.984.161.376.950;-11.744.345.092.773.400;-440.311.527.252.197;-360.306.239.128.113;1.031.070.137.023.920;4.735.691.070.556.640;-13.176.647.949.218.700;500.033.092.498.779
485;1614237982;7.311.703.491.210.930;-7.999.749.755.859.370;-12.043.388.366.699.200;-377.684.617.042.542;-287.274.122.238.159;1.210.260.295.867.920;1.719.199.752.807.610;-6.628.688.812.255.850;-152.840.769.290.924
486;1614246315;7.397.574.615.478.510;-7.999.105.072.021.480;-12.139.177.703.857.400;-293.258.857.727.051;-367.099.642.753.601;910.952.949.523.926;-1.114.514.255.523.680;-1.923.550.415.039.060;-714.652.729.034.424
487;1614254648;7.528.984.832.763.670;-8.001.416.778.564.450;-12.272.146.606.445.300;-262.750.864.028.931;-354.268.717.765.808;593.265.867.233.276;-0.44027054309845;-2.775.005.531.311.030;-541.168.928.146.362
488;1614262981;7.707.466.125.488.280;-8.004.885.101.318.350;-12.441.752.624.511.700;-160.967.886.447.906;-309.303.164.482.117;514.607.572.555.542;1.273.935.604.095.450;-3.551.262.283.325.190;-511.766.576.766.968
489;1614271314;7.809.953.308.105.460;-8.001.327.514.648.430;-12.524.751.281.738.200;-152.088.570.594.788;-273.187.303.543.091;325.266.718.864.441;2.389.897.155.761.710;-1.622.938.537.597.650;-861.406.135.559.082
490;1614279647;7.849.059.295.654.290;-7.993.823.242.187.500;-12.543.492.126.464.800;-183.941.888.809.204;-201.015.090.942.383;-0.17180883884430;2.378.518.486.022.940;-230.419.349.670.410;-1.035.780.048.370.360
491;1614287980;7.836.896.514.892.570;-7.984.324.645.996.090;-12.506.811.523.437.500;-201.402.091.979.980;-136.248.385.906.219;-207.691.788.673.401;2.772.987.937.927.240;956.199.550.628.662;-1.035.930.156.707.760
492;1614296313;7.795.203.399.658.200;-7.974.136.352.539.060;-12.438.877.105.712.800;-165.949.046.611.786;-0.77081954479218;-254.238.557.815.552;2.919.284.057.617.180;1.635.758.590.698.240;-973.751.640.319.824
493;1614304646;7.710.620.117.187.500;-7.964.929.962.158.200;-12.328.167.724.609.300;-108.731.293.678.284;-0.05443739518523;-282.486.748.695.374;2.819.975.852.966.300;2.530.068.206.787.100;-638.919.687.271.118
494;1614312979;7.648.581.695.556.640;-7.959.139.251.708.980;-12.239.261.627.197.200;-0.08877007663250;0.31035247445107;-317.525.362.968.445;2.949.387.741.088.860;2.001.091.194.152.830;-311.596.250.534.058
495;1614321312;7.651.111.602.783.200;-7.959.442.138.671.870;-12.213.666.534.423.800;117.036.938.667.297;129.211.986.064.911;-266.903.424.263.000;3.224.156.188.964.840;501.760.244.369.507;0.90636056661606
496;1614329645;7.746.052.551.269.530;-7.964.521.789.550.780;-12.283.774.566.650.300;272.666.549.682.617;129.628.133.773.804;-232.874.584.197.998;3.018.210.029.602.050;-1.644.405.937.194.820;177.837.240.695.953
497;1614337978;7.921.769.714.355.460;-7.968.355.560.302.730;-12.433.292.388.916.000;477.907.371.520.996;237.202.191.352.844;-118.793.678.283.691;3.335.829.925.537.100;-3.276.065.444.946.280;-274.212.408.065.796
498;1614346311;8.056.784.820.556.640;-7.964.168.548.583.980;-12.542.250.823.974.600;577.364.635.467.529;267.254.948.616.028;0.27686291933060;3.239.608.764.648.430;-2.252.105.522.155.760;-980.223.464.965.820
499;1614354644;8.148.379.516.601.560;-7.955.091.094.970.700;-12.611.135.864.257.800;493.204.307.556.152;148.305.571.079.254;0.88743102550507;2.761.334.800.720.210;-1.334.852.409.362.790;-1.383.639.717.102.050
500;1614362977;8.202.044.677.734.370;-7.943.979.644.775.390;-12.642.018.890.380.800;287.444.257.736.206;0.68261134624481;-0.76978999376297;2.696.294.975.280.760;-507.330.036.163.330;-1.490.679.264.068.600
501;1614371310;8.253.748.321.533.200;-7.935.114.288.330.070;-12.670.452.880.859.300;104.011.452.198.029;0.58515977859497;-0.39110058546066;2.750.998.878.479.000;-509.064.054.489.136;-1.210.605.239.868.160
502;1614379643;8.302.228.546.142.570;-7.931.170.654.296.870;-12.690.077.972.412.100;-0.02899679169059;0.07937634736300;0.63209712505341;3.403.807.449.340.820;-402.593.421.936.035;-599.518.394.470.215
503;1614387976;8.306.589.508.056.640;-7.932.808.685.302.730;-12.668.148.803.710.900;-0.67358249425888;0.32787111401558;181.674.826.145.172;3.009.149.551.391.600;430.962.371.826.172;179.737.758.636.475
504;1614396309;8.276.297.760.009.760;-7.939.559.173.583.980;-12.613.068.389.892.500;-0.87584251165390;0.04568758606911;200.217.866.897.583;2.761.013.412.475.580;1.081.652.927.398.680;879.028.797.149.658
505;1614404642;8.245.227.813.720.700;-7.948.449.707.031.250;-12.557.057.189.941.400;-0.61806744337082;0.29522347450256;217.508.196.830.750;2.778.717.803.955.070;1.055.459.880.828.850;1.142.655.849.456.780
506;1614412975;8.236.918.640.136.710;-7.956.076.049.804.680;-12.526.935.577.392.500;0.64432901144028;0.69691032171249;172.145.116.329.193;2.457.388.496.398.920;501.144.027.709.961;918.948.268.890.381
507;1614421308;8.224.256.134.033.200;-7.959.880.828.857.420;-12.492.867.279.052.700;135.347.926.616.669;0.37592041492462;0.62188065052032;2.401.082.420.349.120;642.433.643.341.064;477.336.931.228.638
508;1614429641;8.199.757.385.253.900;-7.958.569.335.937.500;-12.444.600.677.490.200;0.45463255047798;-0.31464943289757;0.26947274804115;2.656.501.579.284.660;1.028.769.493.103.020;-0.87324106693268
509;1614437974;8.163.813.781.738.280;-7.952.133.178.710.930;-12.383.753.204.345.700;-0.59414666891098;-0.83160948753357;0.17286396026611;2.767.396.545.410.150;1.391.242.313.385.010;-649.311.161.041.260
510;1614446307;8.103.641.510.009.760;-7.941.697.692.871.090;-12.296.360.015.869.100;-158.991.312.980.652;-115.331.304.073.334;-0.67100375890732;2.989.504.241.943.350;2.054.573.249.816.890;-1.023.315.715.789.790
511;1614454640;8.028.273.773.193.350;-7.930.280.303.955.070;-12.193.862.915.039.000;-199.683.976.173.401;-0.90486824512482;-0.92764335870743;2.943.224.143.981.930;2.434.332.656.860.350;-1.057.933.330.535.880
512;1614462973;7.952.086.639.404.290;-7.920.187.377.929.680;-12.092.771.148.681.600;-156.713.855.266.571;-0.49107396602631;-0.74053871631622;2.675.370.025.634.760;2.410.587.692.260.740;-869.368.553.161.621
513;1614471306;7.878.855.895.996.090;-7.913.562.774.658.200;-11.996.337.127.685.500;-0.77194339036942;0.21384578943253;-0.53034400939941;2.478.115.653.991.690;2.256.480.598.449.700;-444.493.198.394.775
514;1614479639;7.810.075.378.417.960;-7.911.286.163.330.070;-11.907.266.998.291.000;0.16496886312962;0.98299449682236;-0.04600737243891;2.141.966.247.558.590;2.001.500.129.699.700;0.61704736948013
515;1614487972;7.738.738.250.732.420;-7.912.027.740.478.510;-11.820.512.390.136.700;0.46773153543472;138.970.541.954.041;0.44962936639786;1.562.110.519.409.180;1.873.057.174.682.610;430.214.405.059.814
516;1614496305;7.678.054.046.630.850;-7.914.746.856.689.450;-11.749.888.610.839.800;0.20936585962772;136.415.946.483.612;0.77536851167679;940.592.002.868.652;1.455.445.861.816.400;600.583.505.630.493
517;1614504638;7.638.636.016.845.700;-7.917.312.622.070.310;-11.705.380.249.023.400;-0.23606643080711;0.96150505542755;0.65215760469437;415.423.250.198.364;876.443.672.180.176;457.453.632.354.736
518;1614512971;7.622.312.164.306.640;-7.918.018.341.064.450;-11.685.355.377.197.200;-0.65509438514709;0.48640871047974;0.37612468004227;301.078.653.335.571;388.999.509.811.401;114.668.524.265.289
519;1614521304;7.621.105.957.031.250;-7.915.710.449.218.750;-11.680.993.652.343.700;-100.200.819.969.177;0.10916397720575;-0.07105269283056;269.270.944.595.337;131.863.367.557.526;-319.027.900.695.801
520;1614529637;7.630.001.068.115.230;-7.910.771.179.199.210;-11.684.545.135.498.000;-111.530.256.271.362;-0.26961708068848;-0.54282933473587;549.003.982.543.945;0.33084627985954;-669.125.747.680.664
521;1614537970;7.640.778.350.830.070;-7.904.567.718.505.850;-11.688.999.938.964.800;-102.600.908.279.419;-0.41907045245171;-0.45425882935524;668.137.121.200.562;0.47463181614876;-821.424.293.518.066
522;1614546303;7.645.287.322.998.040;-7.898.692.321.777.340;-11.688.050.842.285.100;-102.224.004.268.646;-0.42288476228714;-0.41873875260353;552.791.166.305.542;157.168.984.413.147;-754.548.072.814.941
523;1614554636;7.644.609.832.763.670;-7.894.376.373.291.010;-11.683.328.247.070.300;-0.97150337696075;-0.22959175705910;-0.47253271937370;375.061.488.151.550;197.124.576.568.604;-552.136.516.571.045
524;1614562969;7.633.687.591.552.730;-7.892.105.102.539.060;-11.670.345.306.396.400;-0.84936517477036;0.05142235383391;-0.51958465576172;117.968.916.893.005;325.377.631.187.439;-268.610.095.977.783
525;1614571302;7.610.968.780.517.570;-7.892.388.916.015.620;-11.646.988.677.978.500;-0.86661243438721;0.38824772834778;-0.54926687479019;-0.75772035121918;485.588.312.149.048;0.87481582164764
526;1614579635;7.564.336.395.263.670;-7.895.486.450.195.310;-11.610.970.306.396.400;0.26292246580124;0.81764304637909;0.70299655199051;-1.453.930.759.429.930;684.078.168.869.019;488.037.061.691.284
527;1614587968;7.499.271.392.822.260;-7.900.882.720.947.260;-11.539.562.225.341.700;373.781.847.953.796;186.248.612.403.870;222.394.895.553.589;502.975.273.132.324;1.391.254.043.579.100;966.974.639.892.578
528;1614596301;7.261.339.569.091.790;-7.899.057.006.835.930;-11.312.225.341.796.800;787.646.865.844.727;478.083.944.320.679;479.051.494.598.389;-1.874.014.282.226.560;5.031.674.957.275.390;1.167.350.006.103.510
529;1614604634;6.794.281.005.859.370;-7.873.020.935.058.590;-10.907.345.581.054.600;1.128.341.960.906.980;245.489.621.162.415;596.796.751.022.339;-8.479.341.125.488.280;9.861.294.555.664.060;155.106.759.071.350
530;1614612967;6.306.260.299.682.610;-7.819.277.954.101.560;-10.441.272.735.595.700;1.434.475.135.803.220;139.603.364.467.621;149.429.106.712.341;-3.865.209.960.937.500;12.822.578.430.175.700;-1.298.597.049.713.130
531;1614621300;5.884.752.273.559.570;-7.745.577.239.990.230;-10.006.529.235.839.800;2.127.569.389.343.260;520.418.357.849.121;392.324.995.994.568;314.637.923.240.662;13.879.750.061.035.100;-2.456.167.221.069.330
532;1614629633;5.730.287.551.879.880;-7.697.441.864.013.670;-9.855.459.594.726.560;4.162.110.519.409.180;564.532.613.754.272;980.195.617.675.781;-957.155.704.498.291;6.429.869.079.589.840;-2.853.380.584.716.790
533;1614637966;5.973.137.664.794.920;-7.673.815.917.968.750;-10.093.318.939.208.900;5.293.321.609.497.070;0.78442233800888;-0.30547940731049;1.247.316.551.208.490;-4.085.462.188.720.700;-5.882.143.402.099.600
534;1614646299;5.988.494.110.107.420;-7.599.866.485.595.700;-10.080.142.211.914.000;5.701.277.160.644.530;-0.33558818697929;1.347.348.594.665.520;3.279.606.628.417.960;4.754.680.252.075.190;-7.555.966.186.523.430
535;1614654632;5.468.180.465.698.240;-7.468.063.354.492.180;-9.561.755.371.093.750;2.904.218.864.440.910;-119.740.045.070.648;579.190.397.262.573;-2.351.874.923.706.050;21.754.145.812.988.200;-4.857.321.548.461.910
536;1614662965;5.307.418.441.772.460;-7.444.403.839.111.320;-9.384.382.629.394.530;450.603.866.577.148;1.234.416.484.832.760;661.128.330.230.713;1.124.896.717.071.530;6.221.079.635.620.110;972.990.894.317.627
537;1614671298;5.505.543.518.066.400;-7.566.712.951.660.150;-9.591.218.566.894.530;1.305.539.035.797.110;2.118.910.026.550.290;276.457.929.611.206;-307.176.685.333.252;-13.823.974.609.375.000;8.049.153.137.207.030
538;1614679631;5.710.339.736.938.470;-7.714.419.555.664.060;-9.819.594.573.974.600;2.432.689.285.278.320;1.881.411.552.429.190;-314.482.951.164.246;-2.163.862.800.598.140;-15.263.427.734.375.000;11.032.870.483.398.400
539;1614687964;5.593.072.509.765.620;-7.787.580.871.582.030;-9.717.984.008.789.060;2.483.582.496.643.060;1.520.067.882.537.840;-746.818.113.327.026;-2.267.524.147.033.690;-2.672.106.552.124.020;8.701.803.588.867.180
540;1614696297;5.281.450.271.606.440;-7.793.724.822.998.040;-9.452.433.776.855.460;2.096.937.179.565.430;1.040.319.156.646.720;-321.328.282.356.262;-6.337.372.589.111.320;4.968.928.527.832.030;4.414.565.277.099.600
541;1614704630;5.152.752.304.077.140;-7.782.801.055.908.200;-9.368.498.992.919.920;2.182.362.365.722.650;502.609.920.501.709;311.264.944.076.538;-5.697.124.481.201.170;2.445.023.727.416.990;186.732.232.570.648
542;1614712963;5.355.485.916.137.690;-7.777.960.968.017.570;-9.619.052.886.962.890;2.531.237.983.703.610;290.433.025.360.107;0.02398034930229;-5.158.897.781.372.070;-4.719.885.253.906.250;-4.398.657.989.501.950
543;1614721296;5.513.234.710.693.350;-7.742.265.319.824.210;-9.835.215.759.277.340;2.726.776.695.251.460;0.15819464623928;-128.191.757.202.148;-6.503.917.694.091.790;-2.060.493.659.973.140;-6.799.613.952.636.710
544;1614729629;5.545.692.443.847.650;-7.690.153.503.417.960;-9.921.964.263.916.010;2.287.177.276.611.320;-226.352.930.068.970;171.752.524.375.916;-6.354.595.565.795.890;1.628.324.699.401.850;-6.531.427.001.953.120
545;1614737962;5.627.478.027.343.750;-7.660.777.282.714.840;-10.038.571.929.931.600;1.830.049.133.300.780;-149.765.193.462.372;0.43971648812294;-3.906.080.245.971.680;-705.955.028.533.936;-4.791.479.873.657.220
546;1614746295;5.697.631.835.937.500;-7.650.839.996.337.890;-10.126.021.575.927.700;1.622.004.318.237.300;0.31226480007172;0.04921377450228;-1.887.752.914.428.710;-1.411.081.886.291.500;-2.412.307.357.788.080
547;1614754628;5.707.581.329.345.700;-7.651.108.551.025.390;-10.145.377.349.853.500;1.410.245.037.078.850;0.87403053045273;0.69928759336472;-1.164.764.118.194.580;-502.146.720.886.230;-341.414.809.226.990
548;1614762961;5.695.555.877.685.540;-7.661.080.932.617.180;-10.139.099.884.033.200;1.219.492.244.720.450;-0.42294088006020;0.72024321556091;-810.487.174.987.793;-533.927.631.378.174;1.024.439.048.767.090
549;1614771294;5.712.068.939.208.980;-7.681.838.989.257.810;-10.154.591.369.628.900;1.207.440.853.118.890;-117.010.772.228.241;0.66147023439407;0.70795214176178;-1.743.455.314.636.230;1.783.076.858.520.500
550;1614779627;5.736.859.130.859.370;-7.705.848.693.847.650;-10.171.324.157.714.800;1.330.430.030.822.750;-0.69385159015656;0.81831461191177;918.998.622.894.287;-1.969.719.696.044.920;2.102.046.966.552.730
551;1614787960;5.727.655.410.766.600;-7.723.554.992.675.780;-10.153.776.550.292.900;1.344.826.984.405.510;116.856.694.221.497;0.68437856435776;847.892.951.965.332;-782.211.637.496.948;1.966.996.955.871.580
552;1614796293;5.710.688.400.268.550;-7.733.228.302.001.950;-10.132.321.166.992.100;1.207.559.013.366.690;244.256.782.531.738;0.78858762979507;375.118.017.196.655;-182.215.857.505.798;1.208.948.612.213.130
553;1614804626;5.740.285.110.473.630;-7.737.866.210.937.500;-10.159.379.577.636.700;1.094.548.416.137.690;321.002.435.684.204;136.434.173.583.984;270.534.992.218.018;-931.022.453.308.105;0.07389707118273
554;1614812959;5.809.312.438.964.840;-7.738.422.393.798.820;-10.228.280.639.648.400;1.022.508.716.583.250;348.467.111.587.524;155.623.269.081.116;115.082.228.183.746;-1.593.117.427.825.920;-981.928.443.908.691
555;1614821292;5.888.798.522.949.210;-7.736.107.635.498.040;-10.309.324.645.996.000;895.091.629.028.320;358.654.475.212.097;177.683.305.740.356;-0.61840474605560;-1.699.387.550.354.000;-1.423.283.863.067.620
556;1614829625;5.970.869.445.800.780;-7.734.828.186.035.150;-10.394.579.315.185.500;754.099.512.100.220;353.134.560.585.022;216.011.023.521.423;-233.414.983.749.390;-1.877.468.109.130.850;-1.350.180.912.017.820
557;1614837958;6.049.691.390.991.210;-7.733.789.062.500.000;-10.479.123.687.744.100;633.887.386.322.021;335.995.173.454.285;221.218.252.182.007;-555.890.607.833.862;-1.898.438.262.939.450;-1.290.717.124.938.960
558;1614846291;6.096.483.993.530.270;-7.729.913.330.078.120;-10.534.995.269.775.300;505.685.091.018.677;298.655.366.897.583;165.825.891.494.751;-1.025.747.871.398.920;-1.086.546.039.581.290;-1.199.720.001.220.700
559;1614854624;6.109.790.802.001.950;-7.724.130.249.023.430;-10.560.518.646.240.200;369.734.287.261.963;246.729.087.829.590;117.355.906.963.348;-1.485.012.722.015.380;-282.836.318.016.052;-1.008.088.207.244.870
560;1614862957;6.104.963.302.612.300;-7.719.786.071.777.340;-10.570.942.687.988.200;279.483.127.593.994;179.935.860.633.850;0.91913050413132;-1.899.187.469.482.420;-0.19844634830952;-663.633.108.139.038
561;1614871290;6.094.456.863.403.320;-7.718.991.088.867.180;-10.576.511.383.056.600;243.110.632.896.423;103.692.483.901.978;0.79310733079910;-1.970.598.411.560.050;-104.470.241.069.794;-224.775.218.963.623
562;1614879623;6.079.321.289.062.500;-7.720.835.876.464.840;-10.577.724.456.787.100;267.556.357.383.728;0.49572086334229;0.63926386833191;-2.058.230.018.615.720;-165.452.659.130.096;102.642.679.214.478
563;1614887956;6.058.190.155.029.290;-7.723.545.074.462.890;-10.573.595.428.466.700;361.556.458.473.206;0.18693944811821;0.57234275341034;-2.149.184.989.929.190;-0.92302215099335;263.567.996.025.085
564;1614896289;6.034.547.424.316.400;-7.727.236.938.476.560;-10.566.075.134.277.300;500.887.155.532.837;0.16414892673492;0.79688209295273;-2.056.872.367.858.880;-0.74524641036987;408.945.512.771.606
565;1614904622;6.005.490.493.774.410;-7.729.920.196.533.200;-10.550.172.424.316.400;622.358.989.715.576;0.23219856619835;0.97888451814651;-1.765.035.247.802.730;167.291.736.602.783;409.699.869.155.884
566;1614912955;5.964.788.436.889.640;-7.728.603.363.037.100;-10.519.487.762.451.100;715.563.392.639.160;0.38579922914505;111.406.040.191.650;-1.392.429.828.643.790;750.343.513.488.770;196.223.008.632.660
567;1614921288;5.908.791.351.318.350;-7.720.460.510.253.900;-10.468.799.591.064.400;783.660.030.364.990;0.62818986177444;126.730.370.521.545;-947.871.875.762.939;1.612.024.879.455.560;-237.645.125.389.099
568;1614929621;5.844.041.824.340.820;-7.704.515.838.623.040;-10.406.288.146.972.600;818.511.867.523.193;0.81266605854034;157.504.117.488.861;-557.736.253.738.403;2.392.110.061.645.500;-842.638.397.216.797
569;1614937954;5.779.270.935.058.590;-7.682.249.450.683.590;-10.341.877.746.582.000;849.248.981.475.830;0.79112005233765;189.513.111.114.502;-314.974.689.483.643;2.871.383.857.727.050;-1.416.315.937.042.230
570;1614946287;5.726.179.885.864.250;-7.656.906.127.929.680;-10.287.230.682.373.000;891.020.679.473.877;0.71696752309799;207.081.651.687.622;-0.89560258388519;2.876.659.584.045.410;-1.829.654.884.338.370
571;1614954620;5.686.609.649.658.200;-7.631.458.282.470.700;-10.244.046.020.507.800;932.669.162.750.244;0.95261615514755;202.997.231.483.459;238.101.172.447.205;2.660.218.620.300.290;-1.969.505.882.263.180
572;1614962953;5.650.809.478.759.760;-7.607.007.598.876.950;-10.200.920.867.919.900;938.164.138.793.945;167.196.810.245.514;187.352.144.718.170;628.895.378.112.793;2.614.008.140.563.960;-1.847.794.914.245.600
573;1614971286;5.611.191.940.307.610;-7.584.107.208.251.950;-10.153.127.288.818.300;914.975.166.320.801;239.765.119.552.612;168.485.307.693.481;738.269.424.438.477;2.657.061.576.843.260;-1.581.604.766.845.700
574;1614979619;5.568.798.828.125.000;-7.564.334.869.384.760;-10.103.392.791.748.000;841.306.591.033.936;300.896.501.541.138;135.346.984.863.281;596.855.592.727.661;2.517.881.011.962.890;-1.214.752.101.898.190
575;1614987952;5.539.207.077.026.360;-7.550.986.480.712.890;-10.069.276.428.222.600;772.563.648.223.877;344.178.819.656.372;115.784.823.894.501;314.466.023.445.129;1.714.458.465.576.170;-813.719.749.450.684
576;1614996285;5.521.334.075.927.730;-7.543.911.743.164.060;-10.050.361.633.300.700;763.570.833.206.177;369.057.631.492.615;112.796.151.638.031;-0.47701391577721;921.741.104.125.977;-448.092.889.785.767
577;1615004618;5.502.214.050.292.960;-7.540.811.157.226.560;-10.034.785.461.425.700;797.646.808.624.268;370.090.031.623.840;134.322.547.912.598;-549.042.510.986.328;576.722.526.550.293;-104.717.409.610.748
578;1615012951;5.472.425.842.285.150;-7.539.761.352.539.060;-10.011.918.640.136.700;879.031.753.540.039;327.516.269.683.838;148.754.727.840.424;-1.019.364.643.096.920;608.785.104.751.587;220.309.352.874.756
579;1615021284;5.420.102.310.180.660;-7.538.874.053.955.070;-9.967.712.402.343.750;946.471.881.866.455;261.576.724.052.429;145.629.024.505.615;-1.300.435.066.223.140;1.108.885.383.605.950;609.889.221.191.406
580;1615029617;5.351.567.077.636.710;-7.538.687.896.728.510;-9.908.018.493.652.340;956.443.119.049.072;211.444.330.215.454;144.432.759.284.973;-1.393.013.954.162.590;1.443.436.908.721.920;973.474.311.828.613
581;1615037950;5.287.897.872.924.800;-7.539.090.728.759.760;-9.852.464.294.433.590;995.237.922.668.457;185.567.307.472.229;131.426.036.357.880;-1.288.021.278.381.340;1.284.311.008.453.360;979.719.257.354.736
582;1615046283;5.231.749.343.872.070;-7.535.349.273.681.640;-9.803.079.986.572.260;1.057.742.500.305.170;157.885.169.982.910;142.140.281.200.409;-1.104.100.704.193.110;1.432.545.661.926.270;477.582.693.099.976
583;1615054616;5.194.051.742.553.710;-7.526.532.745.361.320;-9.770.166.015.625.000;1.095.157.718.658.440;123.173.606.395.721;148.412.549.495.697;-726.628.589.630.127;1.423.488.235.473.630;-276.532.602.310.181
