DeviceTag:;A5;;;;;;;;;
FirmwareVersion:;3.0.0;;;;;;;;;
AppVersion:;2023.6.0;;;;;;;;;
StartTime: ;2026-05-28_17:09:58_000 CEST;;;;;;;;;
© Movella Technologies B. V. 2005-2026;;;;;;;;;;
;;;;;;;;;;
PacketCounter;SampleTimeFine;Euler_X;Euler_Y;Euler_Z;ax;ay;az;Gyr_X;Gyr_Y;Gyr_Z
0;944948088;6.731.299.591.064.450;-7.405.397.796.630.850;-7.611.495.971.679.680;0.00000000000000;0.00000000000000;0.00000000000000;0.00000000000000;0.00000000000000;0.00000000000000
1;944956421;6.736.048.889.160.150;-7.405.618.286.132.810;-7.615.941.619.873.040;950.356.388.092.041;232.633.638.381.958;0.98351025581360;-0.35479557514191;-170.028.567.314.148;-0.94428157806396
2;944964754;6.741.440.582.275.390;-7.406.099.700.927.730;-7.623.300.933.837.890;948.721.408.843.994;232.254.481.315.613;0.97241401672363;-0.35338681936264;-192.640.829.086.304;-0.85373520851135
3;944973087;6.746.999.359.130.850;-7.406.632.995.605.460;-7.628.392.028.808.590;951.005.840.301.514;231.619.119.644.165;101.560.509.204.865;-0.12759730219841;-204.172.348.976.135;-0.67925107479095
4;944981420;6.752.948.760.986.320;-7.407.335.662.841.790;-7.633.755.493.164.060;948.629.856.109.619;232.991.623.878.479;103.069.019.317.627;0.00471301842481;-210.509.300.231.934;-0.65043503046036
5;944989753;6.759.128.570.556.640;-7.408.047.485.351.560;-7.639.403.533.935.540;948.631.191.253.662;232.362.461.090.088;0.98815888166428;-0.02570388652384;-229.018.163.681.030;-0.54641568660736
6;944998086;6.765.651.702.880.850;-7.408.879.089.355.460;-7.647.167.968.750.000;948.319.435.119.629;234.016.394.615.173;0.99367046356201;0.25086584687233;-228.201.055.526.733;-0.53135454654694
7;945006419;6.771.681.213.378.900;-7.409.592.437.744.140;-7.652.394.866.943.350;946.087.169.647.217;231.619.477.272.034;100.140.249.729.156;0.28296047449112;-215.977.954.864.502;-0.49026921391487
8;945014752;6.778.335.571.289.060;-7.410.419.464.111.320;-7.657.786.560.058.590;947.037.696.838.379;231.508.636.474.609;0.98674142360687;0.39543259143829;-227.955.174.446.106;-0.54854166507721
9;945023085;6.785.155.487.060.540;-7.411.126.708.984.370;-7.663.755.035.400.390;947.558.498.382.568;233.760.094.642.639;100.540.721.416.473;0.37348121404648;-238.346.862.792.969;-0.57525730133057
10;945031418;6.792.127.227.783.200;-7.411.979.675.292.960;-7.669.951.629.638.670;948.329.162.597.656;230.355.429.649.353;0.94703203439713;0.33505979180336;-240.726.423.263.550;-0.55392062664032
11;945039751;6.798.886.871.337.890;-7.412.742.614.746.090;-7.675.901.031.494.140;948.721.599.578.857;233.461.666.107.178;0.97794932126999;0.32084390521049;-239.909.338.951.111;-0.50745636224747
12;945048084;6.805.561.828.613.280;-7.413.607.788.085.930;-7.681.433.868.408.200;950.870.513.916.016;233.852.624.893.188;0.98984235525131;0.39671325683594;-229.812.192.916.870;-0.49736440181732
13;945056417;6.812.727.355.957.030;-7.414.415.740.966.790;-7.687.590.026.855.460;951.071.262.359.619;234.284.949.302.673;100.931.024.551.392;0.57250380516052;-248.008.561.134.338;-0.48161169886589
14;945064750;6.820.709.991.455.070;-7.415.443.420.410.150;-7.693.028.259.277.340;951.811.790.466.309;234.671.068.191.528;0.96416139602661;0.49315086007118;-275.582.265.853.882;-0.46429640054703
15;945073083;6.828.937.530.517.570;-7.416.440.582.275.390;-7.700.266.265.869.140;951.196.575.164.795;236.286.067.962.646;102.284.634.113.312;0.59614574909210;-289.098.930.358.887;-0.39675167202950
16;945081416;6.837.916.564.941.400;-7.417.588.806.152.340;-7.708.106.231.689.450;950.835.895.538.330;237.790.799.140.930;101.118.445.396.423;0.74737215042114;-305.714.869.499.207;-0.41340097784996
17;945089749;6.847.021.484.375.000;-7.418.704.986.572.260;-7.716.104.125.976.560;948.519.992.828.369;236.851.692.199.707;0.99538439512253;0.77290952205658;-316.949.272.155.762;-0.33899161219597
18;945098082;6.856.955.718.994.140;-7.419.973.754.882.810;-7.725.083.923.339.840;949.106.311.798.096;237.470.626.831.055;101.899.683.475.494;0.69417136907578;-342.463.588.714.600;-0.38904178142548
19;945106415;6.866.985.321.044.920;-7.421.116.638.183.590;-7.734.075.164.794.920;952.153.491.973.877;237.575.840.950.012;102.762.281.894.684;0.73197805881500;-347.881.054.878.235;-0.42431265115738
20;945114748;6.876.394.653.320.310;-7.422.295.379.638.670;-7.742.588.043.212.890;952.085.494.995.117;237.308.216.094.971;102.434.957.027.435;0.59540283679962;-323.744.726.181.030;-0.42725822329521
21;945123081;6.885.813.903.808.590;-7.423.473.358.154.290;-7.751.240.539.550.780;950.268.936.157.227;238.651.323.318.481;102.192.330.360.413;0.38877290487289;-338.695.764.541.626;-0.32861784100533
22;945131414;6.895.196.533.203.120;-7.424.721.527.099.600;-7.759.896.087.646.480;949.417.209.625.244;239.233.350.753.784;0.98412579298019;0.25714132189751;-334.584.689.140.320;-0.36155778169632
23;945139747;6.904.712.677.001.950;-7.425.743.103.027.340;-7.768.717.956.542.960;950.282.001.495.361;239.258.003.234.863;0.98323678970337;0.31128981709480;-336.490.392.684.937;-0.51040214300156
24;945148080;6.913.430.023.193.350;-7.426.817.321.777.340;-7.775.105.285.644.530;950.039.386.749.268;239.151.167.869.568;0.97520935535431;0.34056687355042;-303.204.679.489.136;-0.46578207612038
25;945156413;6.921.496.582.031.250;-7.427.841.186.523.430;-7.782.380.676.269.530;950.016.784.667.969;239.109.182.357.788;0.95852726697922;0.35639646649361;-289.291.048.049.927;-0.32349503040314
26;945164746;6.929.206.848.144.530;-7.428.922.271.728.510;-7.788.876.342.773.430;951.355.552.673.340;241.073.417.663.574;0.99954158067703;0.27158775925636;-273.369.216.918.945;-0.33112803101540
27;945173079;6.936.454.010.009.760;-7.429.978.179.931.640;-7.795.719.909.667.960;949.985.218.048.096;241.814.732.551.575;0.95628201961517;-0.13005629181862;-277.024.340.629.578;-0.22654511034489
28;945181412;6.943.206.787.109.370;-7.431.144.714.355.460;-7.802.279.663.085.930;949.673.557.281.494;243.847.465.515.137;0.98876762390137;-0.29562667012215;-261.327.958.106.995;-0.16939973831177
29;945189745;6.949.405.670.166.010;-7.432.039.642.333.980;-7.808.651.733.398.430;951.322.460.174.561;242.780.494.689.941;0.93956178426743;-0.84684514999390;-255.872.130.393.982;-0.34265446662903
30;945198078;6.954.563.903.808.590;-7.433.110.809.326.170;-7.812.957.000.732.420;952.567.958.831.787;242.688.512.802.124;0.91365438699722;-105.301.415.920.258;-226.323.580.741.882;-0.16594181954861
31;945206411;6.959.358.215.332.030;-7.433.946.990.966.790;-7.818.074.035.644.530;952.774.429.321.289;241.496.968.269.348;0.90110296010971;-108.236.801.624.298;-214.845.800.399.780;-0.26138049364090
32;945214744;6.963.871.765.136.710;-7.435.001.373.291.010;-7.824.801.635.742.180;951.976.394.653.320;245.723.223.686.218;0.92994570732117;-113.577.365.875.244;-207.722.473.144.531;-0.09245458245277
33;945223077;6.967.873.382.568.350;-7.435.918.426.513.670;-7.829.470.062.255.850;951.758.766.174.316;242.212.843.894.958;0.92496734857559;-151.558.148.860.931;-204.446.434.974.670;-0.11829935759306
34;945231410;6.972.153.472.900.390;-7.436.969.757.080.070;-7.834.896.087.646.480;953.028.869.628.906;243.837.904.930.115;0.91014581918716;-165.927.743.911.743;-213.480.567.932.129;-0.12524078786373
35;945239743;6.976.552.581.787.100;-7.438.070.678.710.930;-7.840.164.184.570.310;950.682.353.973.389;242.945.098.876.953;0.91046333312988;-173.148.405.551.910;-229.899.311.065.674;0.02820127457380
36;945248076;6.980.628.967.285.150;-7.439.249.420.166.010;-7.845.061.492.919.920;950.733.089.447.021;242.345.380.783.081;0.88455867767334;-182.205.581.665.039;-216.305.828.094.482;0.02323211170733
37;945256409;6.984.553.527.832.030;-7.440.236.663.818.350;-7.850.100.708.007.810;948.257.350.921.631;242.087.030.410.767;0.93726164102554;-203.634.452.819.824;-217.973.327.636.719;-0.07608708739281
38;945264742;6.988.160.705.566.400;-7.441.326.904.296.870;-7.852.232.360.839.840;951.524.162.292.480;242.230.272.293.091;0.92169779539108;-207.223.010.063.171;-203.785.562.515.259;-0.04476087540388
39;945273075;6.991.429.901.123.040;-7.442.352.294.921.870;-7.856.668.853.759.760;948.536.396.026.611;240.446.352.958.679;0.92185389995575;-212.683.963.775.635;-200.942.397.117.615;0.03831889480352
40;945281408;6.994.239.807.128.900;-7.443.361.663.818.350;-7.858.833.312.988.280;949.054.527.282.715;242.258.596.420.288;0.90229582786560;-196.974.742.412.567;-172.561.812.400.818;-0.03067304566503
41;945289741;6.996.102.142.333.980;-7.444.206.237.792.960;-7.861.782.073.974.600;947.589.874.267.578;242.787.861.824.036;0.90760350227356;-209.664.058.685.303;-148.376.870.155.334;0.00002561423753
42;945298074;6.997.756.195.068.350;-7.445.111.846.923.820;-7.865.802.001.953.120;949.740.314.483.643;242.590.522.766.113;0.90789073705673;-207.661.008.834.839;-135.088.193.416.595;-0.01322975289077
43;945306407;6.999.001.312.255.850;-7.445.892.333.984.370;-7.868.038.177.490.230;951.746.463.775.635;243.364.000.320.435;0.91254603862762;-201.167.798.042.297;-124.104.809.761.047;0.01280711684376
44;945314740;7.000.243.377.685.540;-7.446.710.205.078.120;-7.874.034.881.591.790;948.656.749.725.342;240.085.411.071.777;0.88771253824234;-195.007.562.637.329;-115.211.546.421.051;-0.04391560703516
45;945323073;7.001.290.893.554.680;-7.447.441.101.074.210;-7.875.991.821.289.060;950.972.175.598.145;239.106.535.911.560;0.90615868568420;-192.889.261.245.728;-113.723.349.571.228;-0.01645714603364
46;945331406;7.003.159.332.275.390;-7.448.110.961.914.060;-7.878.954.315.185.540;950.172.901.153.564;239.542.555.809.021;0.86075264215469;-175.778.961.181.641;-123.431.146.144.867;-0.27441805601120
47;945339739;7.004.725.646.972.650;-7.448.584.747.314.450;-7.881.143.951.416.010;952.210.903.167.725;237.943.553.924.561;0.90673249959946;-157.195.818.424.225;-109.845.364.093.781;-0.32971921563148
48;945348072;7.006.442.260.742.180;-7.449.196.624.755.850;-7.883.575.439.453.120;950.555.419.921.875;238.558.721.542.358;0.87171137332916;-181.944.334.506.989;-117.936.909.198.761;-0.33415055274963
49;945356405;7.008.641.052.246.090;-7.449.630.737.304.680;-7.886.640.930.175.780;951.132.965.087.891;239.736.247.062.683;0.90402036905289;-182.966.315.746.307;-134.770.572.185.516;-0.46188867092133
50;945364738;7.011.595.153.808.590;-7.450.366.210.937.500;-7.890.126.037.597.650;951.507.186.889.648;240.410.375.595.093;0.91762650012970;-184.403.288.364.410;-162.223.935.127.258;-0.33138418197632
51;945373071;7.013.648.986.816.400;-7.450.852.966.308.590;-7.893.077.087.402.340;951.373.863.220.215;241.331.052.780.151;0.86618071794510;-187.210.595.607.758;-133.341.312.408.447;-0.39795556664467
52;945381404;7.015.455.627.441.400;-7.451.430.511.474.600;-7.896.636.962.890.620;949.710.178.375.244;241.923.975.944.519;0.84906977415085;-199.023.902.416.229;-123.426.032.066.345;-0.39221802353859
53;945389737;7.015.895.080.566.400;-7.451.834.869.384.760;-7.897.933.959.960.930;949.413.299.560.547;241.101.455.688.477;0.85402083396912;-189.654.183.387.756;-0.80038082599640;-0.31209662556648
54;945398070;7.015.904.998.779.290;-7.452.372.741.699.210;-7.897.296.905.517.570;949.763.488.769.531;240.903.663.635.254;0.89976340532303;-190.709.507.465.363;-0.63388830423355;-0.22044894099236
55;945406403;7.016.008.758.544.920;-7.452.744.293.212.890;-7.898.303.222.656.250;950.379.085.540.771;240.676.975.250.244;0.87635886669159;-196.114.087.104.797;-0.70063889026642;-0.31399208307266
56;945414736;7.016.163.635.253.900;-7.453.144.073.486.320;-7.899.187.469.482.420;954.357.624.053.955;241.450.667.381.287;0.85049569606781;-198.537.206.649.780;-0.64152133464813;-0.40863665938377
57;945423069;7.015.904.235.839.840;-7.453.390.502.929.680;-7.899.974.822.998.040;952.153.587.341.309;241.072.440.147.400;0.84524905681610;-214.512.801.170.349;-0.58383804559708;-0.42736071348190
58;945431402;7.016.829.681.396.480;-7.453.719.329.833.980;-7.903.913.116.455.070;949.426.269.531.250;239.616.203.308.105;0.83684813976288;-222.847.676.277.161;-0.92299622297287;-0.58496510982513
59;945439735;7.017.506.408.691.400;-7.454.010.772.705.070;-7.905.862.426.757.810;952.876.186.370.850;239.731.526.374.817;0.83534711599350;-236.389.946.937.561;-0.94930207729340;-0.51137542724609
60;945448068;7.018.212.127.685.540;-7.454.335.021.972.650;-7.908.748.626.708.980;949.696.350.097.656;237.772.274.017.334;0.82735151052475;-239.358.592.033.386;-0.89569139480591;-0.58071309328079
61;945456401;7.018.965.911.865.230;-7.454.545.593.261.710;-7.910.723.876.953.120;947.808.456.420.898;234.130.001.068.115;0.82900357246399;-230.106.759.071.350;-0.92222785949707;-0.60143506526947
62;945464734;7.019.884.490.966.790;-7.454.917.907.714.840;-7.913.129.425.048.820;949.816.703.796.387;234.417.247.772.217;0.83305078744888;-240.849.399.566.650;-0.98085874319077;-0.56193792819977
63;945473067;7.020.709.228.515.620;-7.455.018.615.722.650;-7.915.245.056.152.340;951.437.759.399.414;231.242.299.079.895;0.83737248182297;-237.855.076.789.856;-0.92153614759445;-0.74354290962219
64;945481400;7.022.259.521.484.370;-7.455.158.233.642.570;-7.917.012.786.865.230;949.398.517.608.643;230.312.705.039.978;0.82710349559784;-224.446.010.589.600;-104.018.127.918.243;-0.87455958127975
65;945489733;7.024.323.272.705.070;-7.455.169.677.734.370;-7.920.254.516.601.560;948.651.790.618.896;233.053.779.602.051;0.85025465488434;-219.172.048.568.726;-122.414.267.063.141;-0.96618169546127
66;945498066;7.026.200.866.699.210;-7.455.025.482.177.730;-7.921.719.360.351.560;948.943.996.429.443;231.997.585.296.631;0.86822235584259;-231.492.471.694.946;-104.556.024.074.554;-124.491.572.380.066
67;945506399;7.028.150.177.001.950;-7.454.784.393.310.540;-7.925.000.000.000.000;949.969.482.421.875;233.103.513.717.651;0.83071345090866;-237.934.494.018.555;-113.508.200.645.447;-125.070.476.531.982
68;945514732;7.029.268.646.240.230;-7.454.630.279.541.010;-7.927.616.119.384.760;951.468.563.079.834;231.909.775.733.948;0.79422038793564;-264.250.540.733.337;-0.89210540056229;-119.514.751.434.326
69;945523065;7.029.164.123.535.150;-7.454.237.365.722.650;-7.929.380.798.339.840;952.140.808.105.469;231.189.012.527.466;0.83635091781616;-308.499.121.665.955;-0.61559969186783;-125.708.258.152.008
70;945531398;7.029.081.726.074.210;-7.453.986.358.642.570;-7.933.099.365.234.370;952.276.706.695.557;230.629.849.433.899;0.86819195747375;-301.982.831.954.956;-0.57956045866013;-120.472.705.364.227
71;945539731;7.028.732.299.804.680;-7.453.614.807.128.900;-7.934.606.933.593.750;950.517.272.949.219;229.565.215.110.779;0.83814162015915;-308.291.673.660.278;-0.54792696237564;-120.874.857.902.527
72;945548064;7.028.564.453.125.000;-7.453.370.666.503.900;-7.934.496.307.373.040;954.693.222.045.898;232.543.301.582.336;0.82343560457230;-334.261.918.067.932;-0.63452863693237;-122.124.838.829.041
73;945556397;7.027.944.183.349.600;-7.453.096.008.300.780;-7.936.148.834.228.510;956.887.912.750.244;231.396.412.849.426;0.84896951913834;-357.619.500.160.217;-0.62981545925140;-111.264.383.792.877
74;945564730;7.026.778.411.865.230;-7.452.883.911.132.810;-7.940.037.536.621.090;959.911.823.272.705;232.637.262.344.360;0.81330138444901;-389.283.871.650.696;-0.48747727274895;-111.077.404.022.217
75;945573063;7.024.932.861.328.120;-7.452.500.152.587.890;-7.940.781.402.587.890;959.547.138.214.111;229.925.584.793.091;0.77754408121109;-399.762.606.620.789;-0.31294190883636;-113.941.073.417.664
76;945581396;7.022.916.412.353.510;-7.452.113.342.285.150;-7.941.878.509.521.480;957.204.151.153.564;226.013.255.119.324;0.78088992834091;-399.094.104.766.846;-0.17803174257278;-122.585.880.756.378
77;945589729;7.021.485.900.878.900;-7.451.589.965.820.310;-7.942.805.480.957.030;953.646.945.953.369;220.988.798.141.479;0.79216814041138;-371.481.966.972.351;-0.31068783998489;-131.269.097.328.186
78;945598062;7.021.018.981.933.590;-7.451.329.040.527.340;-7.944.122.314.453.120;952.481.269.836.426;221.049.880.981.445;0.74564719200134;-326.482.915.878.296;-0.52146744728088;-119.238.126.277.924
79;945606395;7.021.386.718.750.000;-7.450.832.366.943.350;-7.946.403.503.417.960;954.070.186.614.990;222.522.759.437.561;0.76955080032349;-312.069.797.515.869;-0.73122245073318;-143.517.851.829.529
80;945614728;7.022.004.699.707.030;-7.450.600.433.349.600;-7.948.968.505.859.370;954.284.381.866.455;220.061.135.292.053;0.76532590389252;-285.948.371.887.207;-0.76265102624893;-125.336.849.689.484
81;945623061;7.021.910.095.214.840;-7.450.305.175.781.250;-7.950.369.262.695.310;955.305.862.426.758;220.169.425.010.681;0.74587804079056;-265.510.749.816.895;-0.54815745353699;-110.723.936.557.770
82;945631394;7.020.419.311.523.430;-7.449.920.654.296.870;-7.951.638.793.945.310;952.020.931.243.896;220.153.427.124.023;0.72008526325226;-257.222.008.705.139;0.03324728086591;-114.829.897.880.554
83;945639727;7.018.526.458.740.230;-7.449.606.323.242.180;-7.950.916.290.283.200;952.706.050.872.803;221.018.528.938.293;0.75551438331604;-236.010.861.396.790;0.10030534118414;-0.90160834789276
84;945648060;7.016.564.941.406.250;-7.449.318.695.068.350;-7.950.424.957.275.390;953.400.039.672.852;220.573.449.134.827;0.71208715438843;-227.673.411.369.324;0.21900172531605;-0.96874326467514
85;945656393;7.013.819.885.253.900;-7.448.915.863.037.100;-7.948.678.588.867.180;956.589.889.526.367;223.972.630.500.793;0.69381666183472;-219.584.417.343.140;0.44853085279465;-0.89164429903030
86;945664726;7.010.631.561.279.290;-7.448.767.089.843.750;-7.947.380.065.917.960;955.604.457.855.225;226.731.848.716.736;0.72451072931290;-212.745.428.085.327;0.58618170022964;-0.64953851699829
87;945673059;7.007.797.241.210.930;-7.448.612.213.134.760;-7.945.597.076.416.010;958.491.230.010.986;224.935.841.560.364;0.73041141033173;-226.013.588.905.334;0.35529506206512;-0.60581505298615
88;945681392;7.005.683.135.986.320;-7.448.690.795.898.430;-7.944.588.470.458.980;959.411.907.196.045;228.736.495.971.680;0.77802944183350;-200.811.743.736.267;0.19092848896980;-0.50935184955597
89;945689725;7.003.915.405.273.430;-7.448.874.664.306.640;-7.943.647.766.113.280;961.355.590.820.312;230.629.444.122.314;0.77739989757538;-195.578.753.948.212;-0.03441272303462;-0.31091839075089
90;945698058;7.002.547.454.833.980;-7.449.247.741.699.210;-7.942.846.679.687.500;959.826.850.891.113;231.465.721.130.371;0.77238804101944;-206.585.192.680.359;-0.18487073481083;-0.27429002523422
91;945706391;7.001.338.958.740.230;-7.449.689.483.642.570;-7.942.713.928.222.650;959.759.521.484.375;231.695.580.482.483;0.80623483657837;-222.025.489.807.129;-0.38517409563065;-0.11207509785891
92;945714724;7.001.422.119.140.620;-7.450.302.124.023.430;-7.944.609.069.824.210;957.273.578.643.799;230.354.046.821.594;0.82473903894424;-216.400.575.637.817;-0.76936197280884;-0.15182836353779
93;945723057;7.001.380.920.410.150;-7.450.912.475.585.930;-7.945.853.424.072.260;954.344.749.450.684;229.522.275.924.683;0.77637624740601;-241.108.083.724.976;-0.86925750970840;-0.07129722088575
94;945731390;7.001.644.134.521.480;-7.451.569.366.455.070;-7.947.031.402.587.890;952.287.006.378.174;225.107.645.988.464;0.78138840198517;-210.522.103.309.631;-0.82035994529724;-0.14212056994438
95;945739723;7.001.701.354.980.460;-7.452.154.541.015.620;-7.948.292.541.503.900;950.603.675.842.285;223.578.524.589.539;0.78118658065796;-231.448.960.304.260;-0.86505681276321;-0.09985710680485
96;945748056;7.002.191.162.109.370;-7.452.665.710.449.210;-7.949.762.725.830.070;949.252.414.703.369;223.468.756.675.720;0.77491706609726;-205.949.974.060.059;-0.81731182336807;-0.32003706693649
97;945756389;7.002.310.180.664.060;-7.453.013.610.839.840;-7.950.800.323.486.320;946.830.940.246.582;223.762.536.048.889;0.72965490818024;-197.750.842.571.259;-0.69999861717224;-0.34562569856644
98;945764722;7.002.736.663.818.350;-7.453.435.516.357.420;-7.951.851.654.052.730;948.954.296.112.061;223.659.968.376.160;0.76271963119507;-189.838.624.000.549;-0.71772366762161;-0.40305277705193
99;945773055;7.002.958.679.199.210;-7.453.845.977.783.200;-7.952.773.284.912.100;951.046.848.297.119;222.391.319.274.902;0.75864231586456;-172.405.588.626.862;-0.68962496519089;-0.26819390058517
100;945781388;7.003.446.197.509.760;-7.454.296.112.060.540;-7.953.574.371.337.890;950.197.410.583.496;223.113.775.253.296;0.74187356233597;-185.829.985.141.754;-0.73767715692520;-0.36657810211182
101;945789721;7.004.188.537.597.650;-7.454.711.151.123.040;-7.955.077.362.060.540;951.873.683.929.443;224.887.633.323.669;0.71881002187729;-177.021.253.108.978;-0.86413460969925;-0.31701457500458
102;945798054;7.005.132.293.701.170;-7.455.316.162.109.370;-7.957.284.545.898.430;951.617.050.170.898;227.090.620.994.568;0.71334588527679;-143.612.599.372.864;-0.83534419536591;-0.21284148097038
103;945806387;7.005.691.528.320.310;-7.455.899.810.791.010;-7.958.237.457.275.390;952.881.717.681.885;231.260.704.994.202;0.71607828140259;-135.423.731.803.894;-0.76954120397568;-0.07152774930000
104;945814720;7.006.758.880.615.230;-7.456.566.619.873.040;-7.960.118.865.966.790;951.814.460.754.395;234.016.704.559.326;0.70208728313446;-0.95275986194611;-0.77197462320328;-0.10387852787971
105;945823053;7.007.835.388.183.590;-7.457.102.966.308.590;-7.961.198.425.292.960;955.123.424.530.029;233.322.882.652.283;0.74841624498367;-0.87914466857910;-0.78885442018509;-0.13881635665894
106;945831386;7.010.115.814.208.980;-7.457.933.807.373.040;-7.963.945.007.324.210;954.501.914.978.027;234.772.086.143.494;0.76353734731674;-0.82059043645859;-118.413.317.203.522;-0.04324963688850
107;945839719;7.012.659.454.345.700;-7.458.627.319.335.930;-7.966.516.876.220.700;955.838.012.695.312;232.732.772.827.148;0.74785834550858;-0.84359198808670;-129.803.967.475.891;-0.11942636966705
108;945848052;7.015.928.649.902.340;-7.459.445.190.429.680;-7.969.501.495.361.320;954.186.344.146.729;233.934.450.149.536;0.73998308181763;-0.70793902873993;-145.321.083.068.848;-0.16081896424294
109;945856385;7.019.181.060.791.010;-7.460.211.181.640.620;-7.972.636.413.574.210;956.963.157.653.809;231.695.604.324.341;0.73634940385818;-0.64385223388672;-149.678.063.392.639;-0.09952411800623
110;945864718;7.022.054.290.771.480;-7.460.965.728.759.760;-7.974.323.272.705.070;956.677.722.930.908;232.852.911.949.158;0.73808038234711;-0.47323578596115;-124.173.951.148.987;-0.16660776734352
111;945873051;7.023.304.748.535.150;-7.461.554.718.017.570;-7.975.371.551.513.670;957.814.311.981.201;229.981.780.052.185;0.73018366098404;-0.63460546731949;-0.79648739099503;-0.07552357017994
112;945881384;7.023.747.253.417.960;-7.462.141.418.457.030;-7.974.116.516.113.280;957.028.198.242.188;229.149.198.532.104;0.73268002271652;-0.55302417278290;-0.44044956564903;-0.08100502192974
113;945889717;7.023.447.418.212.890;-7.462.651.824.951.170;-7.973.248.291.015.620;955.078.315.734.863;228.665.661.811.829;0.77636241912842;-0.28118023276329;-0.19040343165398;0.04864143207669
114;945898050;7.023.401.641.845.700;-7.463.326.263.427.730;-7.972.714.996.337.890;955.920.219.421.387;229.539.728.164.673;0.78095453977585;0.05927134305239;-0.16793975234032;0.12089919298887
115;945906383;7.022.691.345.214.840;-7.463.744.354.248.040;-7.971.096.038.818.350;956.076.908.111.572;230.775.737.762.451;0.80617547035217;0.09897340089083;0.07000370323658;0.02607529051602
116;945914716;7.022.743.225.097.650;-7.464.375.305.175.780;-7.970.756.530.761.710;955.061.912.536.621;230.983.948.707.581;0.79766350984573;0.38137036561966;-0.09652724862099;0.09254422783852
117;945923049;7.022.684.478.759.760;-7.464.814.758.300.780;-7.969.671.630.859.370;952.590.560.913.086;233.986.663.818.359;0.74772244691849;0.26234099268913;-0.09680899232626;-0.01276869606227
118;945931382;7.023.139.190.673.820;-7.465.219.879.150.390;-7.970.680.236.816.400;948.773.097.991.943;233.468.079.566.956;0.73352402448654;0.30388727784157;-0.15239189565182;-0.21179132163525
119;945939715;7.023.703.002.929.680;-7.465.570.831.298.820;-7.970.143.890.380.850;951.141.452.789.307;236.115.360.260.010;0.76895219087601;0.37473627924919;-0.22416296601295;-0.17050115764141
120;945948048;7.023.699.188.232.420;-7.465.872.192.382.810;-7.969.224.548.339.840;953.339.481.353.760;234.592.509.269.714;0.72546279430389;0.10962892323732;-0.01445923559368;-0.30031406879425
121;945956381;7.022.164.154.052.730;-7.466.000.366.210.930;-7.966.813.659.667.960;955.496.788.024.902;236.108.899.116.516;0.72331696748734;0.02497387677431;0.42455592751503;-0.21555657684803
122;945964714;7.020.677.947.998.040;-7.466.133.880.615.230;-7.961.008.453.369.140;954.235.839.843.750;234.966.564.178.467;0.75569087266922;0.22094839811325;0.54658222198486;-0.32428902387619
123;945973047;7.019.560.241.699.210;-7.466.288.757.324.210;-7.958.621.215.820.310;957.749.938.964.844;237.386.417.388.916;0.79737031459808;0.50270497798920;0.40595999360085;-0.19731923937798
124;945981380;7.017.719.268.798.820;-7.466.663.360.595.700;-7.955.934.906.005.850;957.802.295.684.814;238.899.207.115.173;0.77056872844696;0.13718985021114;0.53234070539474;-0.00564793962985
125;945989713;7.016.643.524.169.920;-7.467.174.530.029.290;-7.954.101.562.500.000;955.472.469.329.834;239.991.474.151.611;0.79820722341537;-0.08725488930941;0.09656567126513;0.15107275545597
126;945998046;7.016.288.757.324.210;-7.467.675.781.250.000;-7.953.637.695.312.500;955.529.689.788.818;240.767.550.468.445;0.77979576587677;-0.02055542357266;-0.02788109518588;-0.03282464295626
127;946006379;7.015.302.276.611.320;-7.468.070.220.947.260;-7.951.811.981.201.170;954.381.084.442.139;237.681.818.008.423;0.82988005876541;0.00852954015136;0.14023792743683;0.01990225911140
128;946014712;7.014.437.103.271.480;-7.468.568.420.410.150;-7.952.417.755.126.950;953.137.779.235.840;243.143.057.823.181;0.80536729097366;-0.16837519407272;0.09331266582012;-0.00078123423737
129;946023045;7.012.725.830.078.120;-7.468.849.182.128.900;-7.950.231.933.593.750;956.619.071.960.449;241.808.962.821.960;0.78385853767395;-0.44413802027702;0.29384645819664;-0.07083616405725
130;946031378;7.010.124.206.542.960;-7.469.070.434.570.310;-7.945.970.153.808.590;955.493.927.001.953;244.973.421.096.802;0.80455893278122;-0.53668230772018;0.65367531776428;-0.15656700730324
131;946039711;7.006.964.111.328.120;-7.469.194.030.761.710;-7.942.525.482.177.730;951.181.507.110.596;245.013.499.259.949;0.78503882884979;-0.72886580228806;0.73062044382095;-0.11417544633150
132;946048044;7.003.778.839.111.320;-7.469.409.942.626.950;-7.936.438.751.220.700;951.349.544.525.146;241.573.739.051.819;0.79643326997757;-0.75865519046783;0.77757132053375;-0.11870916932821
133;946056377;6.999.632.263.183.590;-7.469.640.350.341.790;-7.931.797.027.587.890;954.027.557.373.047;238.503.670.692.444;0.81039565801620;-0.52331161499023;104.337.024.688.721;0.13795827329159
134;946064710;6.995.312.500.000.000;-7.469.975.280.761.710;-7.925.046.539.306.640;951.729.393.005.371;237.545.204.162.598;0.78098315000534;-0.39908260107040;117.313.206.195.831;0.17053957283497
135;946073043;6.990.656.280.517.570;-7.470.092.010.498.040;-7.919.696.044.921.870;950.507.545.471.191;240.184.569.358.826;0.84100973606110;-0.31511911749840;130.007.612.705.231;0.08350241184235
136;946081376;6.985.842.132.568.350;-7.470.335.388.183.590;-7.914.480.590.820.310;948.964.786.529.541;244.289.612.770.081;0.86437100172043;-0.46360480785370;133.972.692.489.624;0.13155469298363
137;946089709;6.980.417.633.056.640;-7.470.384.216.308.590;-7.908.573.913.574.210;947.709.369.659.424;246.607.112.884.521;0.84271210432053;-0.59398126602173;149.138.891.696.930;0.07471672445536
138;946098042;6.974.804.687.500.000;-7.470.405.578.613.280;-7.904.045.867.919.920;946.244.621.276.855;252.053.928.375.244;0.84963476657867;-0.93372869491577;155.493.795.871.735;-0.07096423953772
139;946106375;6.969.212.341.308.590;-7.470.250.701.904.290;-7.898.683.929.443.350;945.613.098.144.531;253.180.766.105.652;0.87601894140244;-142.790.400.981.903;141.393.160.820.007;-0.20892252027988
140;946114708;6.963.982.391.357.420;-7.470.169.830.322.260;-7.894.379.425.048.820;941.795.539.855.957;253.267.836.570.740;0.84152710437775;-184.198.379.516.602;124.697.792.530.060;-0.31373596191406
141;946123041;6.958.925.628.662.100;-7.470.009.613.037.100;-7.890.267.181.396.480;943.143.844.604.492;253.363.084.793.091;0.90361261367798;-223.411.202.430.725;104.367.756.843.567;-0.35338678956032
142;946131374;6.954.027.557.373.040;-7.469.971.466.064.450;-7.885.081.481.933.590;945.933.628.082.275;249.820.208.549.500;0.90120184421539;-265.764.331.817.627;0.92121601104736;-0.38732564449310
143;946139707;6.948.925.018.310.540;-7.469.660.949.707.030;-7.881.625.366.210.930;947.118.759.155.273;250.754.022.598.267;0.88633859157562;-304.639.077.186.584;0.90986895561218;-0.58906334638596
144;946148040;6.943.752.288.818.350;-7.469.236.755.371.090;-7.878.659.820.556.640;947.094.345.092.773;249.219.560.623.169;0.90014219284058;-331.234.335.899.353;0.99688041210175;-0.84243941307068
145;946156373;6.938.739.013.671.870;-7.468.618.011.474.600;-7.875.717.163.085.930;949.707.412.719.727;247.790.455.818.176;0.86798489093781;-353.680.062.294.006;0.89055567979813;-0.99089944362640
146;946164706;6.933.589.935.302.730;-7.467.981.719.970.700;-7.872.575.378.417.960;949.313.640.594.482;246.637.487.411.499;0.90408152341843;-381.240.963.935.852;0.95197862386703;-112.429.833.412.170
147;946173039;6.928.693.389.892.570;-7.467.247.009.277.340;-7.870.198.059.082.030;950.972.843.170.166;247.437.214.851.379;0.89132684469223;-404.588.413.238.525;0.77375483512878;-118.190.479.278.564
148;946181372;6.924.674.224.853.510;-7.466.635.131.835.930;-7.869.179.534.912.100;953.731.060.028.076;248.399.448.394.775;0.91738134622574;-434.951.496.124.268;0.45447343587875;-127.975.118.160.248
149;946189705;6.920.958.709.716.790;-7.465.910.339.355.460;-7.868.693.542.480.460;951.844.692.230.225;247.681.522.369.385;0.91004002094269;-482.235.383.987.427;0.21042096614838;-138.628.077.507.019
150;946198038;6.917.917.633.056.640;-7.465.414.428.710.930;-7.870.750.427.246.090;946.737.003.326.416;246.439.671.516.418;0.89324516057968;-513.792.085.647.583;-0.10316133499146;-133.533.406.257.629
151;946206371;6.914.566.040.039.060;-7.464.745.330.810.540;-7.871.051.788.330.070;949.161.338.806.152;242.334.485.054.016;0.89747434854507;-529.539.728.164.673;-0.04837248474360;-141.294.527.053.833
152;946214704;6.911.162.567.138.670;-7.464.149.475.097.650;-7.871.282.958.984.370;947.238.540.649.414;245.152.282.714.844;0.92693656682968;-556.191.349.029.541;-0.04978126659989;-144.724.273.681.641
153;946223037;6.907.220.458.984.370;-7.463.442.230.224.600;-7.871.161.651.611.320;948.434.066.772.461;242.247.581.481.934;0.89698356389999;-551.160.764.694.214;0.09505443274975;-140.623.438.358.307
154;946231370;6.903.196.716.308.590;-7.462.757.873.535.150;-7.872.115.325.927.730;948.637.866.973.877;240.417.337.417.603;0.88180834054947;-572.658.729.553.223;0.13588352501392;-148.097.670.078.278
155;946239703;6.898.760.986.328.120;-7.461.996.459.960.930;-7.871.958.160.400.390;948.792.362.213.135;238.799.858.093.262;0.90454816818237;-606.008.481.979.370;0.12904453277588;-145.566.976.070.404
156;946248036;6.894.303.894.042.960;-7.461.208.343.505.850;-7.872.119.140.625.000;949.294.376.373.291;234.148.502.349.854;0.87932318449020;-604.077.196.121.216;0.23813556134701;-158.801.865.577.698
157;946256369;6.890.402.221.679.680;-7.460.225.677.490.230;-7.872.592.926.025.390;951.547.050.476.074;233.554.506.301.880;0.87820380926132;-615.647.029.876.709;0.03829327598214;-178.207.194.805.145
158;946264702;6.886.561.584.472.650;-7.459.407.806.396.480;-7.873.001.861.572.260;949.882.411.956.787;233.032.226.562.500;0.86592388153076;-616.958.570.480.347;0.02630582265556;-170.963.490.009.308
159;946273035;6.883.869.171.142.570;-7.458.591.461.181.640;-7.874.598.693.847.650;951.476.383.209.229;232.992.529.869.080;0.88917398452759;-600.114.679.336.548;-0.36668059229851;-171.959.900.856.018
160;946281368;6.881.414.031.982.420;-7.457.945.251.464.840;-7.879.088.592.529.290;953.158.569.335.938;233.366.394.042.969;0.88793921470642;-578.583.288.192.749;-0.37618348002434;-163.263.845.443.726
161;946289701;6.879.415.130.615.230;-7.457.360.839.843.750;-7.881.078.338.623.040;953.660.392.761.230;235.654.330.253.601;0.88393616676331;-562.433.576.583.862;-0.58191698789597;-150.807.654.857.635
162;946298034;6.877.796.936.035.150;-7.457.069.396.972.650;-7.882.968.902.587.890;951.232.433.319.092;234.397.506.713.867;0.90565079450607;-574.108.505.249.023;-0.77538144588470;-134.030.342.102.051
163;946306367;6.876.250.457.763.670;-7.456.733.703.613.280;-7.885.261.535.644.530;951.233.100.891.113;234.499.931.335.449;0.86465257406235;-543.202.352.523.804;-0.78232270479202;-126.586.818.695.068
164;946314700;6.875.161.743.164.060;-7.456.514.739.990.230;-7.887.055.206.298.820;949.963.855.743.408;230.591.440.200.806;0.89305895566940;-523.207.902.908.325;-0.83618956804276;-128.162.109.851.837
165;946323033;6.874.943.542.480.460;-7.456.214.904.785.150;-7.890.258.789.062.500;950.359.821.319.580;229.527.640.342.712;0.88221400976181;-489.284.420.013.428;-106.774.222.850.800;-133.297.765.254.974
166;946331366;6.874.491.119.384.760;-7.456.010.437.011.710;-7.893.048.858.642.570;951.980.972.290.039;226.024.556.159.973;0.92239826917648;-483.096.027.374.268;-0.94343632459641;-127.980.244.159.698
167;946339699;6.874.736.022.949.210;-7.455.643.463.134.760;-7.896.466.827.392.570;952.031.993.865.967;222.456.765.174.866;0.87959420681000;-458.514.022.827.148;-110.101.509.094.238;-143.353.927.135.468
168;946348032;6.875.049.591.064.450;-7.455.313.110.351.560;-7.900.019.836.425.780;950.849.246.978.760;223.042.368.888.855;0.87430256605148;-421.772.956.848.145;-0.96541333198547;-146.389.198.303.223
169;946356365;6.875.366.973.876.950;-7.454.910.278.320.310;-7.902.824.401.855.460;950.388.336.181.641;220.948.600.769.043;0.90409457683563;-378.395.223.617.554;-0.90493804216385;-139.762.783.050.537
170;946364698;6.876.115.417.480.460;-7.454.537.963.867.180;-7.906.974.792.480.460;951.860.618.591.309;221.524.000.167.847;0.90224337577820;-321.708.416.938.782;-0.82386904954910;-145.825.684.070.587
171;946373031;6.875.876.617.431.640;-7.454.145.050.048.820;-7.908.352.661.132.810;951.368.141.174.316;220.528.268.814.087;0.87919765710831;-280.408.000.946.045;-0.48430117964745;-122.278.523.445.129
172;946381364;6.875.595.092.773.430;-7.453.752.899.169.920;-7.913.704.681.396.480;954.428.005.218.506;222.030.401.229.858;0.91580796241760;-242.652.606.964.111;-0.29875165224075;-126.778.936.386.108
173;946389697;6.875.491.333.007.810;-7.453.317.260.742.180;-7.914.454.650.878.900;952.619.457.244.873;222.636.604.309.082;0.90220206975937;-191.526.591.777.802;-0.27723568677902;-119.737.577.438.354
174;946398030;6.875.743.865.966.790;-7.453.025.054.931.640;-7.915.258.026.123.040;954.716.491.699.219;224.738.168.716.431;0.87427198886871;-159.424.269.199.371;-0.28730207681656;-115.029.680.728.912
175;946406363;6.875.627.136.230.460;-7.452.766.418.457.030;-7.915.369.415.283.200;957.410.144.805.908;224.939.036.369.324;0.91792398691177;-119.353.353.977.203;-0.16527584195137;-0.93155127763748
176;946414696;6.875.841.522.216.790;-7.452.555.084.228.510;-7.915.731.048.583.980;958.538.913.726.807;225.212.287.902.832;0.93299496173859;-112.283.837.795.258;-0.18827742338181;-100.859.880.447.388
177;946423029;6.876.320.648.193.350;-7.452.320.861.816.400;-7.916.049.194.335.930;957.277.297.973.633;225.765.919.685.364;0.87944871187210;-0.71767240762711;-0.23894238471985;-0.91805243492126
178;946431362;6.877.375.030.517.570;-7.452.078.247.070.310;-7.916.706.085.205.070;955.824.470.520.020;222.422.695.159.912;0.90760958194733;-0.45843076705933;-0.26586294174194;-107.432.508.468.628
179;946439695;6.878.713.989.257.810;-7.451.931.762.695.310;-7.917.361.450.195.310;954.678.535.461.426;223.306.035.995.483;0.88803964853287;-0.07350004464388;-0.37769469618797;-0.86193180084229
180;946448028;6.879.771.423.339.840;-7.451.752.471.923.820;-7.917.356.109.619.140;953.259.944.915.771;225.668.597.221.375;0.87192422151566;0.30752450227737;-0.09524653106928;-0.93475300073624
181;946456361;6.880.071.258.544.920;-7.451.307.678.222.650;-7.916.339.874.267.570;951.945.972.442.627;223.704.409.599.304;0.87558621168137;0.61609917879105;0.25201845169067;-100.196.480.751.038
182;946464694;6.880.504.608.154.290;-7.450.981.903.076.170;-7.915.100.097.656.250;953.945.446.014.404;222.887.587.547.302;0.90122932195663;0.98622488975525;0.33772367238998;-0.95913773775101
183;946473027;6.880.442.047.119.140;-7.450.628.662.109.370;-7.913.086.700.439.450;953.647.041.320.801;224.958.348.274.231;0.91889041662216;133.035.218.715.668;0.51064544916153;-0.78191298246384
184;946481360;6.880.689.239.501.950;-7.450.349.426.269.530;-7.911.044.311.523.430;952.715.682.983.398;226.193.380.355.835;0.92682433128357;169.240.951.538.086;0.55785250663757;-0.80732232332230
185;946489693;6.881.313.323.974.600;-7.449.952.697.753.900;-7.909.174.346.923.820;954.303.264.617.920;225.253.796.577.454;0.92064863443375;198.799.741.268.158;0.48600447177887;-0.85037976503372
186;946498026;6.882.163.238.525.390;-7.449.745.178.222.650;-7.908.056.640.625.000;952.688.980.102.539;226.941.108.703.613;0.95866554975510;206.578.803.062.439;0.43498092889786;-0.76049935817719
187;946506359;6.882.552.337.646.480;-7.449.460.601.806.640;-7.905.718.231.201.170;952.921.009.063.721;226.572.418.212.891;0.88811886310577;225.192.689.895.630;0.57959890365601;-0.67709952592850
188;946514692;6.883.325.195.312.500;-7.449.272.918.701.170;-7.902.591.705.322.260;952.491.855.621.338;228.377.771.377.563;0.93121361732483;216.532.492.637.634;0.47829458117485;-0.71959346532822
189;946523025;6.883.824.157.714.840;-7.449.071.502.685.540;-7.900.420.379.638.670;953.469.276.428.223;230.826.115.608.215;0.93385553359985;218.886.423.110.962;0.49286907911301;-0.59892481565475
190;946531358;6.884.242.248.535.150;-7.449.005.889.892.570;-7.897.952.270.507.810;952.453.804.016.113;233.141.803.741.455;0.91794824600220;221.066.212.654.114;0.54496842622757;-0.53773242235184
191;946539691;6.884.484.100.341.790;-7.448.908.233.642.570;-7.895.521.545.410.150;951.376.819.610.596;233.671.212.196.350;0.91506451368332;217.782.473.564.148;0.52701294422150;-0.45164296030998
192;946548024;6.884.084.320.068.350;-7.448.810.577.392.570;-7.890.203.857.421.870;950.590.419.769.287;231.963.562.965.393;0.95330029726028;195.690.190.792.084;0.74824303388596;-0.50873708724976
193;946556357;6.883.545.684.814.450;-7.448.642.730.712.890;-7.887.342.834.472.650;952.306.938.171.387;235.112.738.609.314;0.96311020851135;174.304.866.790.771;0.68536007404327;-0.48404505848885
194;946564690;6.882.521.057.128.900;-7.448.593.139.648.430;-7.884.487.915.039.060;955.533.218.383.789;236.287.522.315.979;0.97295260429382;176.284.861.564.636;0.86909103393555;-0.38202354311943
195;946573023;6.879.875.946.044.920;-7.448.325.347.900.390;-7.879.725.646.972.650;954.928.970.336.914;239.237.880.706.787;0.94948184490204;140.796.327.590.942;129.643.881.320.953;-0.36998480558395
196;946581356;6.875.851.440.429.680;-7.447.924.804.687.500;-7.873.285.675.048.820;951.997.566.223.145;235.942.673.683.167;0.93122828006744;0.80200725793839;170.521.640.777.588;-0.52141618728638
197;946589689;6.870.876.312.255.850;-7.447.429.656.982.420;-7.866.983.795.166.010;952.481.460.571.289;233.517.813.682.556;0.95973634719849;0.39581674337387;185.726.249.217.987;-0.44482961297035
198;946598022;6.865.721.130.371.090;-7.447.006.988.525.390;-7.859.542.083.740.230;954.594.516.754.150;231.800.866.127.014;0.92482310533524;0.28821137547493;193.149.256.706.238;-0.45049035549164
199;946606355;6.860.002.136.230.460;-7.446.239.471.435.540;-7.852.619.171.142.570;953.857.135.772.705;232.088.518.142.700;0.96603089570999;0.21764414012432;216.460.776.329.041;-0.67343658208847
200;946614688;6.853.363.037.109.370;-7.445.536.041.259.760;-7.844.674.682.617.180;952.732.276.916.504;234.857.916.831.970;0.97819787263870;0.10860436409712;246.764.993.667.603;-0.59244447946548
201;946623021;6.847.156.524.658.200;-7.444.641.876.220.700;-7.837.434.387.207.030;952.593.612.670.898;233.617.258.071.899;0.96824365854263;0.00243335217237;231.872.844.696.045;-0.77164155244827
202;946631354;6.842.745.208.740.230;-7.444.019.317.626.950;-7.831.679.534.912.100;952.610.778.808.594;232.415.723.800.659;0.95922738313675;-0.34088703989983;162.852.740.287.781;-0.82141005992889
203;946639687;6.839.402.008.056.640;-7.443.583.679.199.210;-7.827.958.679.199.210;951.613.521.575.928;234.639.692.306.519;0.94370323419571;-0.63324791193008;106.337.487.697.601;-0.66744291782379
204;946648020;6.836.094.665.527.340;-7.443.369.293.212.890;-7.823.381.805.419.920;952.406.787.872.314;233.087.539.672.852;0.92017030715942;-0.88370388746262;0.96271103620529;-0.55591857433319
205;946656353;6.832.460.784.912.100;-7.443.224.334.716.790;-7.819.659.423.828.120;953.919.601.440.430;233.003.854.751.587;0.95472574234009;-0.97819483280182;0.93358772993088;-0.34029793739319
206;946664686;6.828.733.825.683.590;-7.443.181.610.107.420;-7.816.515.350.341.790;949.489.879.608.154;232.176.995.277.405;0.94168609380722;-102.691.304.683.685;0.98204970359802;-0.32223987579346
207;946673019;6.824.156.188.964.840;-7.443.029.022.216.790;-7.811.875.152.587.890;952.230.834.960.938;229.861.617.088.318;0.95521211624146;-105.127.215.385.437;121.257.793.903.351;-0.24147821962833
208;946681352;6.819.046.783.447.260;-7.442.868.804.931.640;-7.805.998.229.980.460;946.405.506.134.033;229.528.188.705.444;0.99410998821259;-125.552.010.536.194;140.537.631.511.688;-0.31242963671684
209;946689685;6.814.819.335.937.500;-7.442.506.408.691.400;-7.801.823.425.292.960;945.262.241.363.525;228.801.083.564.758;0.96619594097137;-116.784.274.578.094;116.560.149.192.810;-0.52546334266663
210;946698018;6.810.285.949.707.030;-7.442.205.810.546.870;-7.797.150.421.142.570;947.610.569.000.244;231.143.331.527.710;0.98485505580902;-127.360.367.774.963;128.327.310.085.297;-0.53803980350494
211;946706351;6.805.609.893.798.820;-7.441.863.250.732.420;-7.792.666.625.976.560;948.125.553.131.104;232.894.349.098.206;100.824.654.102.325;-134.972.929.954.529;124.989.771.842.957;-0.46772873401642
212;946714684;6.801.187.896.728.510;-7.441.711.425.781.250;-7.788.716.888.427.730;948.333.644.866.943;233.665.513.992.310;101.477.015.018.463;-154.788.100.719.452;111.281.037.330.627;-0.41083949804306
213;946723017;6.797.248.840.332.030;-7.441.589.355.468.750;-7.785.166.931.152.340;951.448.726.654.053;233.130.216.598.511;0.97690743207932;-154.688.203.334.808;0.87311238050461;-0.33046203851700
214;946731350;6.793.938.446.044.920;-7.441.625.213.623.040;-7.781.882.476.806.640;951.510.143.280.029;236.184.716.224.670;100.255.680.084.229;-174.078.178.405.762;0.62959790229797;-0.35269516706467
215;946739683;6.790.802.764.892.570;-7.441.708.374.023.430;-7.779.338.073.730.460;952.805.614.471.436;234.175.229.072.571;0.98107224702835;-174.201.130.867.004;0.47878122329712;-0.22554613649845
216;946748016;6.787.831.115.722.650;-7.441.774.749.755.850;-7.777.478.790.283.200;951.047.992.706.299;233.494.782.447.815;100.703.608.989.716;-195.143.330.097.198;0.45475512742996;-0.38525086641312
217;946756349;6.784.988.403.320.310;-7.441.839.599.609.370;-7.775.400.543.212.890;948.828.315.734.863;232.707.118.988.037;0.95303434133530;-193.078.839.778.900;0.34873786568642;-0.29619023203850
218;946764682;6.782.357.788.085.930;-7.441.711.425.781.250;-7.772.849.273.681.640;949.778.556.823.730;230.125.069.618.225;0.95636928081512;-184.021.651.744.843;0.46605101227760;-0.63709014654160
219;946773015;6.779.854.583.740.230;-7.441.406.250.000.000;-7.770.936.584.472.650;950.396.251.678.467;230.152.177.810.669;0.95654505491257;-171.941.947.937.012;0.46482148766518;-0.73247742652893
220;946781348;6.777.191.925.048.820;-7.441.118.621.826.170;-7.768.873.596.191.400;949.770.355.224.609;230.018.043.518.066;0.93933808803558;-170.955.801.010.132;0.58272385597229;-0.78690773248672
221;946789681;6.773.373.413.085.930;-7.440.626.525.878.900;-7.765.717.315.673.820;949.630.737.304.688;231.810.402.870.178;0.90907323360443;-185.389.411.449.432;0.92385429143906;-0.78621613979340
222;946798014;6.769.435.119.628.900;-7.440.103.912.353.510;-7.761.788.177.490.230;950.506.877.899.170;231.678.605.079.651;0.91721379756927;-178.960.251.808.167;106.470.692.157.745;-0.90322190523148
223;946806347;6.764.996.337.890.620;-7.439.509.582.519.530;-7.757.839.965.820.310;951.196.002.960.205;233.241.486.549.377;0.93168479204178;-168.571.114.540.100;120.445.811.748.505;-0.79958671331406
224;946814680;6.761.088.562.011.710;-7.439.266.967.773.430;-7.754.949.188.232.420;951.072.216.033.936;237.830.519.676.208;100.862.693.786.621;-176.980.268.955.231;0.93635386228561;-0.58622014522552
225;946823013;6.757.003.784.179.680;-7.439.064.788.818.350;-7.751.622.772.216.790;951.911.354.064.941;238.568.043.708.801;0.91948705911636;-197.909.665.107.727;0.84211915731430;-0.43832358717918
226;946831346;6.753.169.250.488.280;-7.438.954.925.537.100;-7.748.412.322.998.040;951.107.597.351.074;236.262.130.737.305;0.96774566173553;-182.236.301.898.956;0.83484476804733;-0.45002928376198
227;946839679;6.749.448.394.775.390;-7.438.812.255.859.370;-7.745.416.259.765.620;949.455.451.965.332;235.366.916.656.494;0.98689019680023;-192.640.817.165.375;0.71671187877655;-0.41560375690460
228;946848012;6.746.711.730.957.030;-7.439.038.085.937.500;-7.741.226.196.289.060;945.672.607.421.875;236.221.385.002.136;0.99729472398758;-179.685.139.656.067;0.35040271282196;-0.22219067811966
229;946856345;6.745.247.650.146.480;-7.439.093.017.578.120;-7.740.433.502.197.260;945.045.375.823.975;236.029.314.994.812;0.97534191608429;-176.488.494.873.047;-0.03274780139327;-0.47005966305733
230;946864678;6.743.991.088.867.180;-7.439.237.976.074.210;-7.739.675.140.380.850;948.718.070.983.887;235.475.230.216.980;0.98247855901718;-184.708.082.675.934;-0.08786962926388;-0.49552014470100
231;946873011;6.742.897.796.630.850;-7.439.205.932.617.180;-7.739.149.475.097.650;951.779.937.744.141;234.853.482.246.399;100.309.169.292.450;-162.684.977.054.596;-0.07193758338690;-0.59513390064240
232;946881344;6.741.531.372.070.310;-7.439.255.523.681.640;-7.738.015.747.070.310;950.830.745.697.021;234.058.022.499.084;0.95594394207001;-179.306.042.194.366;0.00550706032664;-0.59077954292297
233;946889677;6.740.570.068.359.370;-7.439.188.385.009.760;-7.737.773.132.324.210;948.613.548.278.809;232.771.968.841.553;0.99971204996109;-179.452.061.653.137;-0.13978970050812;-0.66926151514053
234;946898010;6.740.634.918.212.890;-7.439.202.117.919.920;-7.738.976.287.841.790;948.261.356.353.760;232.639.503.479.004;0.98447066545486;-166.447.722.911.835;-0.39216679334641;-0.79077553749084
235;946906343;6.740.341.186.523.430;-7.439.083.862.304.680;-7.739.348.602.294.920;948.346.138.000.488;234.598.231.315.613;0.99789559841156;-170.702.242.851.257;-0.29880288243294;-0.80445349216461
236;946914676;6.740.650.177.001.950;-7.438.979.339.599.600;-7.740.422.821.044.920;945.424.079.895.020;233.769.989.013.672;0.98977720737457;-156.076.490.879.059;-0.38340666890144;-0.94802117347717
237;946923009;6.740.563.201.904.290;-7.438.754.272.460.930;-7.740.876.007.080.070;947.155.380.249.023;234.838.819.503.784;0.98301899433136;-155.180.001.258.850;-0.27674898505211;-0.92742741107941
238;946931342;6.739.805.603.027.340;-7.438.667.297.363.280;-7.740.681.457.519.530;950.165.557.861.328;233.219.647.407.532;102.597.069.740.295;-165.474.355.220.795;-0.08558996021748;-0.80683553218842
239;946939675;6.738.304.901.123.040;-7.438.468.933.105.460;-7.739.714.813.232.420;948.599.720.001.221;232.893.657.684.326;0.98409253358841;-160.487.258.434.296;0.13690808415413;-0.72220611572266
240;946948008;6.736.742.401.123.040;-7.438.237.762.451.170;-7.738.320.922.851.560;950.433.254.241.943;234.126.806.259.155;0.98040789365768;-157.649.207.115.173;0.24927774071693;-0.84461653232574
241;946956341;6.734.672.546.386.710;-7.438.003.540.039.060;-7.736.652.374.267.570;951.369.571.685.791;236.786.293.983.459;0.96694993972778;-147.441.923.618.317;0.36287686228752;-0.67989146709442
242;946964674;6.733.155.822.753.900;-7.437.777.709.960.930;-7.735.299.682.617.180;951.713.371.276.855;237.671.494.483.948;0.97406941652298;-153.468.966.484.070;0.24666507542133;-0.85112255811691
243;946973007;6.731.493.377.685.540;-7.437.541.961.669.920;-7.734.013.366.699.210;952.307.319.641.113;239.116.668.701.172;0.97589814662933;-142.903.089.523.315;0.24922651052475;-0.71972155570984
244;946981340;6.730.725.097.656.250;-7.437.559.509.277.340;-7.733.417.510.986.320;953.300.857.543.945;236.884.307.861.328;0.96464651823044;-141.658.258.438.110;-0.06873580068350;-0.66096252202988
245;946989673;6.730.252.075.195.310;-7.437.474.822.998.040;-7.733.278.656.005.850;953.488.254.547.119;236.449.360.847.473;0.98232156038284;-133.236.277.103.424;-0.16443055868149;-0.70015227794647
246;946998006;6.729.878.234.863.280;-7.437.571.716.308.590;-7.732.904.052.734.370;953.123.474.121.094;234.148.311.614.990;0.97850888967514;-146.911.728.382.111;-0.24421891570091;-0.62528192996979
247;947006339;6.730.625.915.527.340;-7.437.547.302.246.090;-7.733.995.056.152.340;948.575.019.836.426;233.322.167.396.545;100.733.482.837.677;-128.769.159.317.017;-0.55901783704758;-0.78583186864853
248;947014672;6.731.859.588.623.040;-7.437.636.566.162.100;-7.735.202.789.306.640;947.160.720.825.195;232.968.425.750.732;0.98270124197006;-129.122.638.702.393;-0.69128972291946;-0.82263952493668
249;947023005;6.732.620.239.257.810;-7.437.635.040.283.200;-7.736.265.563.964.840;949.061.393.737.793;232.385.849.952.698;101.149.046.421.051;-123.769.271.373.749;-0.56101572513580;-0.75742578506470
250;947031338;6.733.287.048.339.840;-7.437.595.367.431.640;-7.737.759.399.414.060;949.494.838.714.600;229.961.752.891.541;103.871.440.887.451;-116.520.440.578.461;-0.42349299788475;-0.88042527437210
251;947039671;6.734.103.393.554.680;-7.437.454.223.632.810;-7.738.783.264.160.150;947.966.957.092.285;229.856.610.298.157;0.99992454051971;-112.137.842.178.345;-0.48596608638763;-0.90414416790009
252;947048004;6.734.400.177.001.950;-7.437.277.984.619.140;-7.739.031.219.482.420;947.526.359.558.105;230.459.594.726.562;0.97345185279846;-0.95731920003891;-0.18850795924664;-0.96866631507874
253;947056337;6.733.791.351.318.350;-7.436.949.157.714.840;-7.738.301.849.365.230;948.492.717.742.920;229.821.562.767.029;0.98636990785599;-0.81054967641830;0.12538167834282;-0.89853453636169
254;947064670;6.733.103.942.871.090;-7.436.704.254.150.390;-7.737.451.171.875.000;946.921.920.776.367;232.380.843.162.537;0.97455340623856;-0.78283506631851;0.19105657935143;-0.88708496093750
255;947073003;6.732.328.033.447.260;-7.436.389.923.095.700;-7.736.630.249.023.430;950.847.434.997.559;232.606.840.133.667;0.97642779350281;-0.90258157253265;0.14638535678387;-0.87225431203842
256;947081336;6.731.198.120.117.180;-7.436.148.834.228.510;-7.735.845.947.265.620;951.082.801.818.848;234.009.552.001.953;0.92723017930984;-0.78608804941177;0.32414811849594;-0.83265471458435
257;947089669;6.730.458.068.847.650;-7.435.863.494.873.040;-7.734.906.768.798.820;950.201.511.383.057;235.065.317.153.931;0.97975313663483;-0.72440898418427;0.16856725513935;-0.82084655761719
258;947098002;6.730.397.033.691.400;-7.435.822.296.142.570;-7.734.679.412.841.790;950.393.295.288.086;231.114.768.981.934;0.97962516546249;-0.70004981756210;-0.07928885519505;-0.73427045345306
259;947106335;6.730.963.134.765.620;-7.435.767.364.501.950;-7.734.988.403.320.310;951.588.439.941.406;232.159.090.042.114;101.661.884.784.698;-0.60007745027542;-0.31058537960052;-0.72576647996902
260;947114668;6.731.655.883.789.060;-7.435.791.015.625.000;-7.735.044.860.839.840;951.175.785.064.697;230.774.331.092.834;100.551.772.117.615;-0.54895144701004;-0.30185094475746;-0.74241578578949
261;947123001;6.732.556.915.283.200;-7.435.776.519.775.390;-7.735.707.092.285.150;950.024.223.327.637;230.652.022.361.755;103.049.623.966.217;-0.60732626914978;-0.43376424908638;-0.72220617532730
262;947131334;6.733.716.583.251.950;-7.435.808.563.232.420;-7.736.400.604.248.040;948.506.355.285.645;230.591.201.782.227;100.954.508.781.433;-0.54810625314713;-0.45364087820053;-0.80168712139130
263;947139667;6.734.555.053.710.930;-7.435.752.105.712.890;-7.736.828.613.281.250;947.725.105.285.645;231.960.248.947.144;0.98695689439774;-0.41158232092857;-0.34478041529655;-0.73260551691055
264;947148000;6.734.876.251.220.700;-7.435.773.468.017.570;-7.737.222.290.039.060;951.327.419.281.006;232.117.629.051.208;102.259.898.185.730;-0.69354385137558;-0.22600722312927;-0.72246229648590
265;947156333;6.735.588.836.669.920;-7.435.617.065.429.680;-7.737.685.394.287.100;953.102.016.448.975;232.617.616.653.442;101.415.872.573.853;-0.60325360298157;-0.30989378690720;-0.85327416658401
266;947164666;6.735.800.170.898.430;-7.435.746.002.197.260;-7.737.758.636.474.600;953.233.718.872.070;233.116.173.744.202;102.440.929.412.842;-0.51245111227036;-0.19235008955002;-0.57113331556320
267;947172999;6.734.783.172.607.420;-7.435.690.307.617.180;-7.736.450.195.312.500;955.266.475.677.490;234.418.702.125.549;0.98854434490204;-0.63276118040085;0.17246063053608;-0.52628284692764
268;947181332;6.733.969.879.150.390;-7.435.700.225.830.070;-7.734.144.592.285.150;951.879.596.710.205;230.782.890.319.824;0.97031176090240;-0.68580830097198;0.13252803683281;-0.57930433750153
269;947189665;6.733.225.250.244.140;-7.435.715.484.619.140;-7.733.194.732.666.010;950.959.777.832.031;229.928.851.127.625;0.94926095008850;-0.71897876262665;0.03345219045877;-0.49162676930428
270;947197998;6.732.395.935.058.590;-7.435.697.937.011.710;-7.732.183.074.951.170;948.768.138.885.498;231.179.165.840.149;0.99538964033127;-0.54034507274628;0.18859760463238;-0.58655315637589
271;947206331;6.731.887.054.443.350;-7.435.619.354.248.040;-7.731.303.405.761.710;949.812.507.629.395;231.591.153.144.836;100.834.381.580.353;-0.51870113611221;0.05402042716742;-0.59915536642075
272;947214664;6.732.230.377.197.260;-7.435.503.387.451.170;-7.730.387.878.417.960;951.651.382.446.289;234.355.020.523.071;0.96514022350311;-0.63545066118240;-0.15152099728584;-0.87189567089081
273;947222997;6.732.025.146.484.370;-7.435.154.724.121.090;-7.730.017.089.843.750;950.777.244.567.871;234.980.154.037.476;0.93507730960846;-0.74305605888367;0.02768898755312;-0.96249330043793
274;947231330;6.732.450.103.759.760;-7.434.947.967.529.290;-7.731.275.177.001.950;950.519.084.930.420;234.702.682.495.117;0.98070454597473;-0.90350371599197;-0.20828215777874;-100.083.792.209.625
275;947239663;6.732.991.790.771.480;-7.434.768.676.757.810;-7.731.915.283.203.120;949.403.285.980.225;231.860.113.143.921;0.94758003950119;-101.092.982.292.175;-0.35133764147758;-0.90778124332428
276;947247996;6.733.628.082.275.390;-7.434.668.731.689.450;-7.732.465.362.548.820;951.525.497.436.523;234.998.774.528.503;0.96117722988129;-105.934.071.540.833;-0.36332511901855;-0.92368769645691
277;947256329;6.733.689.880.371.090;-7.434.558.868.408.200;-7.732.720.184.326.170;949.725.914.001.465;233.248.496.055.603;0.97632014751434;-114.204.907.417.297;-0.26906472444534;-0.77604728937149
278;947264662;6.733.593.750.000.000;-7.434.563.446.044.920;-7.732.650.756.835.930;948.705.196.380.615;234.097.528.457.642;0.96350938081741;-112.176.251.411.438;-0.19619221985340;-0.73176026344299
279;947272995;6.733.084.106.445.310;-7.434.365.844.726.560;-7.732.490.539.550.780;950.874.614.715.576;232.495.284.080.505;0.99827224016190;-134.955.000.877.380;-0.10749012976885;-0.82084655761719
280;947281328;6.732.801.818.847.650;-7.434.435.272.216.790;-7.732.919.311.523.430;947.986.793.518.066;234.533.596.038.818;101.518.154.144.287;-154.995.560.646.057;-0.28041177988052;-0.67817527055740
281;947289661;6.732.746.124.267.570;-7.434.265.899.658.200;-7.733.518.218.994.140;948.913.383.483.887;236.119.985.580.444;0.98653244972229;-167.943.561.077.118;-0.34490847587585;-0.88196212053299
282;947297994;6.732.779.693.603.510;-7.434.183.502.197.260;-7.734.796.905.517.570;945.598.316.192.627;235.337.662.696.838;0.99663943052292;-187.848.389.148.712;-0.39457443356514;-0.92527580261230
283;947306327;6.733.250.427.246.090;-7.434.098.052.978.510;-7.736.212.921.142.570;947.881.698.608.398;233.829.998.970.032;100.160.288.810.730;-199.203.169.345.856;-0.62786895036697;-0.89464116096497
284;947314660;6.733.978.271.484.370;-7.434.105.682.373.040;-7.737.958.526.611.320;949.442.100.524.902;233.615.589.141.846;0.99249458312988;-210.990.834.236.145;-0.70980882644653;-0.94277030229568
285;947322993;6.734.632.110.595.700;-7.434.131.622.314.450;-7.739.813.995.361.320;949.847.793.579.102;234.129.905.700.684;102.388.203.144.073;-228.121.662.139.893;-0.81037038564682;-0.82632809877396
286;947331326;6.735.437.774.658.200;-7.434.219.360.351.560;-7.742.375.946.044.920;949.849.510.192.871;233.865.976.333.618;103.181.326.389.313;-230.050.444.602.966;-0.82338243722916;-0.87156283855438
287;947339659;6.736.052.703.857.420;-7.434.225.463.867.180;-7.744.352.722.167.960;952.241.611.480.713;231.468.963.623.047;0.98332905769348;-246.989.130.973.816;-0.83767515420914;-0.86667048931122
288;947347992;6.736.669.158.935.540;-7.434.268.951.416.010;-7.744.069.671.630.850;952.222.061.157.227;232.352.876.663.208;100.663.375.854.492;-247.503.995.895.386;-0.78552466630936;-0.92924606800079
289;947356325;6.736.970.520.019.530;-7.434.118.652.343.750;-7.745.511.627.197.260;949.458.312.988.281;231.051.993.370.056;0.96710354089737;-222.924.542.427.063;-0.60663479566574;-0.96743685007095
290;947364658;6.737.296.295.166.010;-7.434.118.652.343.750;-7.747.104.644.775.390;949.479.770.660.400;231.309.819.221.497;0.95710211992264;-213.472.890.853.882;-0.59108692407608;-0.89333492517471
291;947372991;6.737.737.274.169.920;-7.434.063.720.703.120;-7.748.522.949.218.750;949.308.872.222.900;230.493.164.062.500;0.95476514101028;-202.963.352.203.369;-0.64313513040543;-0.86305892467499
292;947381324;6.738.352.966.308.590;-7.434.150.695.800.780;-7.751.458.740.234.370;952.034.950.256.348;228.219.842.910.767;0.95776909589767;-204.192.829.132.080;-0.70002424716949;-0.81833636760712
293;947389657;6.738.748.168.945.310;-7.434.082.031.250.000;-7.752.777.862.548.820;952.515.602.111.816;229.079.174.995.422;0.98337185382843;-197.558.736.801.147;-0.60550773143768;-0.86777180433273
294;947397990;6.739.630.889.892.570;-7.434.099.578.857.420;-7.754.524.230.957.030;952.142.238.616.943;227.168.941.497.803;0.97050237655640;-158.164.048.194.885;-0.62973874807358;-0.88754600286484
295;947406323;6.740.145.874.023.430;-7.434.129.333.496.090;-7.755.606.079.101.560;951.160.144.805.908;228.474.402.427.673;0.99335390329361;-155.302.953.720.093;-0.58104604482651;-0.72476756572723
296;947414656;6.741.154.479.980.460;-7.434.183.502.197.260;-7.756.875.610.351.560;951.941.394.805.908;228.420.972.824.097;102.453.911.304.474;-136.304.867.267.609;-0.63009732961655;-0.84156847000122
297;947422989;6.741.241.455.078.120;-7.434.138.488.769.530;-7.757.497.406.005.850;953.763.389.587.402;231.516.170.501.709;102.702.319.622.040;-153.789.138.793.945;-0.41001987457275;-0.74958783388138
298;947431322;6.741.328.430.175.780;-7.434.169.006.347.650;-7.757.948.303.222.650;951.615.905.761.719;233.860.278.129.578;100.054.728.984.833;-159.265.470.504.761;-0.39127022027969;-0.77212822437286
299;947439655;6.741.149.902.343.750;-7.434.140.777.587.890;-7.758.338.928.222.650;948.451.042.175.293;231.753.396.987.915;100.588.774.681.091;-158.935.046.195.984;-0.34969833493233;-0.70576179027557
300;947447988;6.740.892.791.748.040;-7.434.167.480.468.750;-7.757.971.191.406.250;948.306.083.679.199;231.488.180.160.522;0.96338063478470;-144.304.192.066.193;-0.24380907416344;-0.71132010221481
301;947456321;6.740.282.440.185.540;-7.434.140.777.587.890;-7.757.852.935.791.010;951.863.861.083.984;231.774.282.455.444;0.98712807893753;-151.857.817.173.004;-0.19514204561710;-0.63798654079437
302;947464654;6.739.565.277.099.600;-7.434.089.660.644.530;-7.757.489.013.671.870;953.325.176.239.014;232.661.223.411.560;0.94993376731873;-155.520.677.566.528;-0.09314616769552;-0.76003843545914
303;947472987;6.738.922.882.080.070;-7.433.856.201.171.870;-7.757.352.447.509.760;953.064.727.783.203;231.311.130.523.682;0.95398485660553;-153.305.029.869.080;-0.09563074260950;-0.86910372972488
304;947481320;6.738.292.694.091.790;-7.433.737.945.556.640;-7.757.458.496.093.750;954.818.725.585.938;231.626.939.773.560;0.97358775138855;-136.630.177.497.864;-0.04686124622822;-0.80645138025284
305;947489653;6.737.944.793.701.170;-7.433.663.940.429.680;-7.757.389.831.542.960;953.697.872.161.865;234.343.576.431.274;0.96991837024689;-126.310.181.617.737;-0.18853357434273;-0.69582343101501
306;947497986;6.737.763.977.050.780;-7.433.694.458.007.810;-7.757.182.312.011.710;954.650.592.803.955;234.753.441.810.608;0.98019701242447;-135.756.719.112.396;-0.24931615591049;-0.71344614028931
307;947506319;6.737.139.129.638.670;-7.433.767.700.195.310;-7.757.037.353.515.620;951.183.605.194.092;234.497.380.256.653;0.98539710044861;-150.605.285.167.694;-0.23371703922749;-0.52805024385452
308;947514652;6.736.749.267.578.120;-7.433.900.451.660.150;-7.757.005.310.058.590;950.056.934.356.689;236.515.617.370.605;0.99000865221024;-156.558.048.725.128;-0.28545781970024;-0.58944755792618
309;947522985;6.736.315.155.029.290;-7.433.907.318.115.230;-7.757.203.674.316.400;946.546.363.830.566;236.180.543.899.536;0.96901690959930;-167.269.909.381.866;-0.30789589881897;-0.64113706350327
310;947531318;6.735.572.814.941.400;-7.433.921.813.964.840;-7.758.406.829.833.980;948.450.756.072.998;235.103.416.442.871;100.624.907.016.754;-187.635.803.222.656;-0.20182736217976;-0.70939904451370
311;947539651;6.734.421.539.306.640;-7.433.926.391.601.560;-7.758.214.569.091.790;947.474.288.940.430;236.083.054.542.542;0.98398756980896;-208.142.542.839.050;-0.18837989866734;-0.59743928909302
312;947547984;6.732.894.897.460.930;-7.433.982.849.121.090;-7.757.791.900.634.760;948.018.646.240.234;231.633.543.968.201;0.95308512449265;-211.731.123.924.255;-0.04032961651683;-0.58842307329178
313;947556317;6.731.255.340.576.170;-7.433.979.797.363.280;-7.757.072.448.730.460;948.225.688.934.326;231.401.300.430.298;100.290.644.168.854;-205.998.635.292.053;-0.02790670841932;-0.53985840082169
314;947564650;6.730.125.427.246.090;-7.434.004.974.365.230;-7.758.463.287.353.510;949.244.976.043.701;231.890.678.405.762;0.97579860687256;-204.766.607.284.546;-0.13202856481075;-0.66116738319397
315;947572983;6.729.505.920.410.150;-7.433.934.020.996.090;-7.758.737.182.617.180;950.343.990.325.928;230.778.741.836.548;0.96759742498398;-198.017.263.412.476;-0.29262986779213;-0.73803579807281
316;947581316;6.729.235.076.904.290;-7.433.935.546.875.000;-7.758.756.256.103.510;951.800.251.007.080;232.240.509.986.877;0.96764385700226;-193.939.447.402.954;-0.35720327496529;-0.79126203060150
317;947589649;6.728.907.012.939.450;-7.433.893.585.205.070;-7.759.329.223.632.810;951.046.562.194.824;232.391.571.998.596;0.98454320430756;-197.950.661.182.404;-0.39334499835968;-0.74933171272278
318;947597982;6.728.279.876.708.980;-7.433.978.271.484.370;-7.759.474.945.068.350;949.312.019.348.145;231.238.746.643.066;0.96774435043335;-213.787.937.164.307;-0.34060528874397;-0.67440992593765
319;947606315;6.727.505.493.164.060;-7.433.971.405.029.290;-7.759.668.731.689.450;951.322.746.276.855;231.419.181.823.730;0.99486398696899;-207.947.897.911.072;-0.29688176512718;-0.65804249048233
320;947614648;6.726.837.158.203.120;-7.434.082.031.250.000;-7.759.365.081.787.100;950.562.381.744.385;232.753.443.717.957;0.96336376667023;-189.293.038.845.062;-0.27359843254089;-0.61329442262650
321;947622981;6.726.192.474.365.230;-7.433.937.072.753.900;-7.759.549.713.134.760;948.615.455.627.441;230.016.255.378.723;0.97242087125778;-190.986.156.463.623;-0.23220586776733;-0.80588793754578
322;947631314;6.725.913.238.525.390;-7.434.014.892.578.120;-7.760.246.276.855.460;952.098.178.863.525;232.880.091.667.175;100.077.378.749.847;-183.473.479.747.772;-0.36304336786270;-0.70522391796112
323;947639647;6.725.109.863.281.250;-7.433.961.486.816.400;-7.760.247.039.794.920;951.661.872.863.770;232.941.365.242.004;0.98321866989136;-188.586.091.995.239;-0.21921941637993;-0.68488621711731
324;947647980;6.724.223.327.636.710;-7.434.018.707.275.390;-7.758.914.184.570.310;951.296.901.702.881;233.199.334.144.592;0.97799611091614;-188.916.528.224.945;-0.18143844604492;-0.63752555847168
325;947656313;6.723.078.918.457.030;-7.434.033.203.125.000;-7.758.615.875.244.140;952.620.124.816.895;230.459.332.466.125;0.99943798780441;-195.314.943.790.436;-0.15997371077538;-0.56831580400467
326;947664646;6.722.119.903.564.450;-7.434.101.867.675.780;-7.759.278.869.628.900;951.368.045.806.885;229.833.006.858.826;0.99071073532104;-201.767.158.508.301;-0.19826696813107;-0.64172619581223
327;947672979;6.720.904.541.015.620;-7.434.129.333.496.090;-7.759.068.298.339.840;949.643.611.907.959;232.556.533.813.477;0.99655151367188;-213.583.016.395.569;-0.19383572041988;-0.56462734937668
328;947681312;6.720.047.760.009.760;-7.434.297.943.115.230;-7.759.215.545.654.290;950.257.110.595.703;234.203.267.097.473;0.98898458480835;-226.018.714.904.785;-0.33742910623550;-0.56975018978119
329;947689645;6.719.121.551.513.670;-7.434.486.389.160.150;-7.759.481.811.523.430;949.586.963.653.564;232.449.460.029.602;0.99310076236725;-234.115.386.009.216;-0.41173601150513;-0.44823628664017
330;947697978;6.718.296.051.025.390;-7.434.986.114.501.950;-7.761.763.763.427.730;952.366.256.713.867;234.156.036.376.953;100.472.712.516.785;-243.789.911.270.142;-0.54831117391586;-0.22021840512753
331;947706311;6.717.693.328.857.420;-7.435.534.667.968.750;-7.762.522.125.244.140;950.486.755.371.094;230.932.879.447.937;0.99375373125076;-252.572.989.463.806;-0.72433215379715;-0.12006672471762
332;947714644;6.717.217.254.638.670;-7.436.446.380.615.230;-7.763.321.685.791.010;949.943.542.480.469;230.056.333.541.870;102.345.204.353.333;-268.154.144.287.109;-0.91195642948151;0.16613394021988
333;947722977;6.717.305.755.615.230;-7.437.532.043.457.030;-7.765.071.868.896.480;950.256.729.125.977;229.438.114.166.260;105.217.742.919.922;-283.817.267.417.908;-126.766.121.387.482;0.35129922628403
334;947731310;6.717.655.181.884.760;-7.438.854.980.468.750;-7.767.350.769.042.960;950.314.044.952.393;231.029.057.502.747;108.468.306.064.606;-341.047.120.094.299;-154.514.038.562.775;0.42704051733017
335;947739643;6.717.997.741.699.210;-7.440.078.735.351.560;-7.770.677.947.998.040;950.812.530.517.578;231.136.822.700.500;112.367.153.167.725;-435.773.754.119.873;-180.392.110.347.748;0.30690979957581
336;947747976;6.719.334.411.621.090;-7.441.613.006.591.790;-7.775.812.530.517.570;948.734.569.549.561;228.221.917.152.405;114.017.426.967.621;-535.825.490.951.538;-244.676.136.970.520;0.33091032505035
337;947756309;6.721.659.088.134.760;-7.443.228.912.353.510;-7.782.702.636.718.750;947.657.775.878.906;230.524.063.110.352;113.047.480.583.191;-609.699.440.002.441;-304.116.535.186.768;0.29873880743980
338;947764642;6.723.961.639.404.290;-7.444.891.357.421.870;-7.789.428.710.937.500;946.078.109.741.211;227.558.851.242.065;114.418.506.622.314;-725.916.528.701.782;-328.793.358.802.795;0.13752284646034
339;947772975;6.725.166.320.800.780;-7.446.353.912.353.510;-7.796.968.078.613.280;947.136.878.967.285;227.847.313.880.920;107.854.831.218.719;-819.098.472.595.215;-315.796.637.535.095;0.05117724835873
340;947781308;6.724.734.497.070.310;-7.447.544.097.900.390;-7.803.662.109.375.000;948.994.445.800.781;225.067.543.983.459;109.216.451.644.897;-892.603.683.471.680;-265.372.443.199.158;-0.19447609782219
341;947789641;6.723.484.039.306.640;-7.448.448.944.091.790;-7.809.509.277.343.750;949.150.943.756.104;223.137.664.794.922;111.869.966.983.795;-918.246.078.491.211;-239.445.734.024.048;-0.35313066840172
342;947797974;6.721.333.312.988.280;-7.448.975.372.314.450;-7.814.257.049.560.540;954.875.278.472.900;218.138.074.874.878;108.703.470.230.103;-922.641.563.415.527;-188.967.788.219.452;-0.75389117002487
343;947806307;6.717.479.705.810.540;-7.448.865.509.033.200;-7.817.381.286.621.090;955.478.668.212.891;220.452.332.496.643;103.992.092.609.406;-916.125.202.178.955;-111.658.871.173.859;-113.751.542.568.207
344;947814640;6.712.374.114.990.230;-7.448.409.271.240.230;-7.818.113.708.496.090;960.865.020.751.953;222.553.682.327.271;0.97480648756027;-932.912.921.905.518;-0.55176913738251;-146.548.044.681.549
345;947822973;6.706.181.335.449.210;-7.447.530.364.990.230;-7.818.823.242.187.500;969.115.447.998.047;215.937.376.022.339;0.97103720903397;-917.838.859.558.105;-0.04319841414690;-168.509.685.993.195
346;947831306;6.698.699.951.171.870;-7.446.657.562.255.850;-7.818.475.341.796.870;973.009.395.599.365;214.354.777.336.121;0.97777074575424;-925.822.830.200.195;0.38815820217133;-161.066.186.428.070
347;947839639;6.690.007.019.042.960;-7.445.720.672.607.420;-7.816.727.447.509.760;972.819.519.042.969;210.594.820.976.257;0.96576356887817;-933.112.621.307.373;0.71584105491638;-143.912.315.368.652
348;947847972;6.680.305.480.957.030;-7.444.984.436.035.150;-7.811.948.394.775.390;971.471.595.764.160;207.427.906.990.051;0.93103444576263;-924.713.611.602.783;100.292.551.517.487;-114.811.968.803.406
349;947856305;6.669.673.919.677.730;-7.444.352.722.167.960;-7.807.912.445.068.350;971.084.499.359.131;202.881.026.268.005;0.91882699728012;-901.343.250.274.658;124.882.221.221.924;-0.81044733524323
350;947864638;6.657.862.091.064.450;-7.443.978.118.896.480;-7.802.149.963.378.900;969.360.065.460.205;198.760.259.151.459;0.85097038745880;-852.688.884.735.107;166.072.428.226.471;-0.38986143469810
351;947872971;6.645.175.933.837.890;-7.443.569.946.289.060;-7.794.752.502.441.400;964.592.361.450.195;197.460.794.448.853;0.90359997749329;-759.637.689.590.454;213.730.335.235.596;-0.12816084921360
352;947881304;6.631.153.106.689.450;-7.443.082.427.978.510;-7.785.424.041.748.040;963.826.370.239.258;195.070.493.221.283;0.85844886302948;-699.982.023.239.136;278.846.812.248.230;-0.04002224281430
353;947889637;6.615.927.124.023.430;-7.442.175.292.968.750;-7.774.053.955.078.120;959.327.411.651.611;192.280.292.510.986;0.90383899211884;-604.755.926.132.202;354.839.110.374.451;-0.14660306274891
354;947897970;6.600.753.784.179.680;-7.441.211.700.439.450;-7.762.019.348.144.530;960.811.710.357.666;193.229.222.297.668;0.92722666263580;-525.456.809.997.559;382.607.483.863.831;-0.20098207890987
355;947906303;6.585.182.952.880.850;-7.439.907.836.914.060;-7.748.699.188.232.420;959.873.676.300.049;193.262.934.684.753;0.92190867662430;-421.504.068.374.634;431.692.075.729.370;-0.30812647938728
356;947914636;6.570.333.099.365.230;-7.438.726.806.640.620;-7.735.102.844.238.280;962.335.395.812.988;189.840.662.479.401;0.89874994754791;-306.403.923.034.668;439.706.802.368.164;-0.21122780442238
357;947922969;6.555.872.344.970.700;-7.437.480.163.574.210;-7.720.943.450.927.730;961.019.420.623.779;188.571.774.959.564;0.94616317749023;-191.234.600.543.976;454.007.196.426.392;-0.09844832122326
358;947931302;6.541.641.998.291.010;-7.436.430.358.886.710;-7.706.286.621.093.750;959.831.142.425.537;188.960.921.764.374;0.97022658586502;-109.742.903.709.412;464.642.238.616.943;0.09710356593132
359;947939635;6.528.308.868.408.200;-7.435.552.215.576.170;-7.691.887.664.794.920;959.779.453.277.588;189.840.590.953.827;0.96914219856262;-0.28597015142441;443.023.824.691.772;0.36095580458641
360;947947968;6.515.959.167.480.460;-7.434.886.169.433.590;-7.677.807.617.187.500;960.574.054.718.018;191.373.682.022.095;0.99396950006485;0.49425223469734;428.375.053.405.762;0.45972430706024
361;947956301;6.505.398.559.570.310;-7.434.565.734.863.280;-7.664.682.006.835.930;954.935.741.424.561;190.516.781.806.946;0.98900973796844;156.966.590.881.348;377.210.569.381.714;0.81645369529724
362;947964634;6.497.016.906.738.280;-7.434.656.524.658.200;-7.653.234.100.341.790;949.754.619.598.389;191.799.235.343.933;0.99861174821854;221.435.046.195.984;312.926.554.679.871;0.92764514684677
363;947972967;6.489.939.880.371.090;-7.434.804.534.912.100;-7.642.912.292.480.460;948.101.329.803.467;196.117.186.546.326;107.230.305.671.692;251.311.492.919.922;270.750.141.143.799;0.95658916234970
364;947981300;6.485.639.953.613.280;-7.435.211.181.640.620;-7.634.965.515.136.710;942.480.182.647.705;195.650.184.154.510;105.556.523.799.896;306.149.005.889.893;193.187.677.860.260;0.80380028486252
365;947989633;6.482.617.950.439.450;-7.435.550.689.697.260;-7.628.285.217.285.150;941.491.031.646.729;205.362.296.104.431;106.536.090.373.993;317.193.913.459.778;154.259.181.022.644;0.65925925970078
366;947997966;6.480.251.312.255.850;-7.435.980.224.609.370;-7.622.160.339.355.460;944.752.120.971.680;212.496.662.139.893;104.770.672.321.320;328.333.544.731.140;137.835.335.731.506;0.59296959638596
367;948006299;6.477.815.246.582.030;-7.436.277.008.056.640;-7.616.123.199.462.890;944.447.040.557.861;215.413.141.250.610;105.485.594.272.614;313.341.474.533.081;137.533.068.656.921;0.52335000038147
368;948014632;6.474.591.827.392.570;-7.436.530.303.955.070;-7.609.445.190.429.680;943.037.796.020.508;220.983.004.570.007;104.086.124.897.003;289.205.193.519.592;162.565.863.132.477;0.48254656791687
369;948022965;6.471.784.973.144.530;-7.436.900.329.589.840;-7.603.480.529.785.150;944.004.917.144.775;225.650.143.623.352;105.365.383.625.031;259.879.469.871.521;131.203.806.400.299;0.59888648986816
370;948031298;6.468.073.272.705.070;-7.437.476.348.876.950;-7.597.151.184.082.030;948.105.335.235.596;226.678.109.169.006;102.246.963.977.814;190.664.684.772.491;136.316.406.726.837;0.77452325820923
371;948039631;6.462.905.120.849.600;-7.438.091.278.076.170;-7.589.895.629.882.810;950.924.682.617.188;229.523.515.701.294;102.803.194.522.858;126.316.583.156.586;155.901.038.646.698;104.431.784.152.985
372;948047964;6.457.269.287.109.370;-7.439.066.314.697.260;-7.582.746.124.267.570;953.569.507.598.877;230.278.778.076.172;105.355.000.495.911;0.54022979736328;139.577.078.819.275;131.572.639.942.169
373;948056297;6.450.528.717.041.010;-7.440.111.541.748.040;-7.575.241.851.806.640;957.373.905.181.885;231.685.423.851.013;108.988.440.036.774;-0.33504694700241;140.381.371.974.945;154.845.726.490.021
374;948064630;6.443.199.920.654.290;-7.441.469.573.974.600;-7.567.871.093.750.000;958.115.100.860.596;230.918.860.435.486;105.683.231.353.760;-123.536.181.449.890;125.404.727.458.954;176.669.073.104.858
375;948072963;6.435.262.298.583.980;-7.442.623.138.427.730;-7.560.550.689.697.260;959.673.404.693.604;226.727.461.814.880;108.234.977.722.168;-198.570.525.646.210;128.534.793.853.760;164.043.819.904.327
376;948081296;6.427.277.374.267.570;-7.443.844.604.492.180;-7.555.051.422.119.140;957.157.611.846.924;224.738.121.032.715;108.616.936.206.818;-276.010.012.626.648;112.310.731.410.980;154.502.499.103.546
377;948089629;6.419.175.720.214.840;-7.444.683.837.890.620;-7.548.857.116.699.210;956.319.713.592.529;221.763.038.635.254;111.361.598.968.506;-348.552.083.969.116;111.316.895.484.924;115.376.746.654.510
378;948097962;6.411.057.281.494.140;-7.445.531.463.623.040;-7.539.807.891.845.700;956.314.373.016.357;218.298.649.787.903;109.834.396.839.142;-420.761.203.765.869;0.99093794822693;0.96842306852341
379;948106295;6.402.938.079.833.980;-7.446.163.177.490.230;-7.534.680.938.720.700;953.942.489.624.023;218.518.710.136.414;118.673.765.659.332;-474.161.720.275.879;0.90743559598923;0.77677726745605
380;948114628;6.394.730.377.197.260;-7.446.870.422.363.280;-7.530.226.135.253.900;955.301.475.524.902;212.605.738.639.832;114.239.227.771.759;-512.124.633.789.062;0.85510569810867;0.72928851842880
381;948122961;6.385.435.867.309.570;-7.447.451.019.287.100;-7.524.299.621.582.030;956.029.796.600.342;209.793.996.810.913;115.691.781.044.006;-522.434.282.302.856;116.104.197.502.136;0.84117144346237
382;948131294;6.375.110.244.750.970;-7.448.036.956.787.100;-7.517.104.339.599.600;951.924.514.770.508;204.040.503.501.892;123.125.648.498.535;-531.163.692.474.365;149.991.834.163.666;0.89014583826065
383;948139627;6.363.748.168.945.310;-7.448.425.292.968.750;-7.508.648.681.640.620;951.722.145.080.566;204.455.852.508.545;118.193.328.380.585;-478.147.363.662.720;198.553.860.187.531;0.99001586437225
384;948147960;6.350.424.957.275.390;-7.448.268.127.441.400;-7.496.390.533.447.260;956.128.883.361.816;207.545.471.191.406;114.214.932.918.549;-398.100.280.761.719;312.032.604.217.529;0.69511908292770
385;948156293;6.333.156.967.163.080;-7.447.138.214.111.320;-7.480.515.289.306.640;964.148.521.423.340;209.250.426.292.419;120.435.357.093.811;-328.857.326.507.568;492.205.715.179.443;0.44438135623932
386;948164626;6.309.822.463.989.250;-7.444.640.350.341.790;-7.459.695.434.570.310;973.163.509.368.896;217.924.904.823.303;113.567.078.113.556;-343.083.453.178.406;749.897.670.745.850;-0.19557748734951
387;948172959;6.277.752.685.546.870;-7.439.775.848.388.670;-7.428.793.334.960.930;982.325.649.261.475;218.513.584.136.963;115.784.931.182.861;-368.707.990.646.362;1.128.238.010.406.490;-129.330.122.470.856
388;948181292;6.240.180.587.768.550;-7.432.758.331.298.820;-7.390.635.681.152.340;986.185.264.587.402;218.343.448.638.916;127.659.273.147.583;-216.882.181.167.603;1.457.611.751.556.390;-252.493.667.602.539
389;948189625;6.200.410.461.425.780;-7.423.698.425.292.960;-7.347.718.811.035.150;988.818.168.640.137;213.376.975.059.509;135.806.930.065.155;0.92605721950531;1.716.901.969.909.660;-373.487.639.427.185
390;948197958;6.159.859.466.552.730;-7.412.693.023.681.640;-7.300.928.497.314.450;992.661.285.400.391;214.786.386.489.868;146.577.978.134.155;437.078.857.421.875;1.949.868.965.148.920;-509.076.738.357.544
391;948206291;6.121.329.116.821.280;-7.399.932.098.388.670;-7.252.375.793.457.030;987.552.928.924.561;215.873.908.996.582;170.828.437.805.176;886.752.414.703.369;2.113.224.220.275.870;-640.408.706.665.039
392;948214624;6.088.617.324.829.100;-7.386.237.335.205.070;-7.206.879.425.048.820;974.664.688.110.352;221.630.764.007.568;176.706.910.133.362;1.258.656.024.932.860;2.103.595.924.377.440;-768.521.022.796.631
393;948222957;6.062.133.789.062.500;-7.371.813.964.843.750;-7.164.642.333.984.370;966.068.363.189.697;239.042.615.890.503;174.915.921.688.080;1.596.672.153.472.900;2.055.907.440.185.540;-881.410.694.122.314
394;948231290;6.041.355.133.056.640;-7.356.921.386.718.750;-7.127.510.070.800.780;958.313.179.016.113;256.494.951.248.169;183.773.910.999.298;1.847.930.145.263.670;1.990.409.469.604.490;-981.447.219.848.633
395;948239623;6.027.556.610.107.420;-7.342.007.446.289.060;-7.094.387.054.443.350;953.573.322.296.143;273.550.772.666.931;176.312.625.408.173;2.063.238.716.125.480;1.842.566.490.173.340;-1.058.935.642.242.430
396;948247956;6.019.934.082.031.250;-7.327.838.134.765.620;-7.066.788.482.666.010;941.211.318.969.727;296.345.353.126.526;165.054.070.949.554;2.148.800.086.975.090;1.642.275.619.506.830;-1.075.587.177.276.610
397;948256289;6.018.853.759.765.620;-7.314.655.303.955.070;-7.045.783.996.582.030;916.204.261.779.785;324.062.752.723.694;149.685.728.549.957;2.191.627.120.971.680;1.393.653.488.159.180;-1.072.754.287.719.720
398;948264622;6.022.287.750.244.140;-7.302.850.341.796.870;-7.029.759.216.308.590;893.393.611.907.959;356.967.592.239.380;134.839.057.922.363;2.159.463.119.506.830;1.168.619.441.986.080;-1.021.456.527.709.960
399;948272955;6.028.520.965.576.170;-7.292.092.895.507.810;-7.017.530.059.814.450;872.367.382.049.561;390.651.392.936.707;118.892.943.859.100;2.059.067.916.870.110;989.117.145.538.330;-969.864.273.071.289
400;948281288;6.035.821.151.733.390;-7.282.547.760.009.760;-7.006.446.075.439.450;855.183.792.114.258;425.988.674.163.818;109.071.493.148.804;1.838.797.950.744.620;830.767.250.061.035;-906.976.032.257.080
401;948289621;6.043.572.616.577.140;-7.273.799.896.240.230;-7.000.616.455.078.120;845.933.246.612.549;459.131.956.100.464;0.98468434810638;1.505.907.344.818.110;674.174.451.828.003;-872.901.344.299.316
402;948297954;6.050.413.131.713.860;-7.265.797.424.316.400;-6.997.212.982.177.730;848.977.184.295.654;485.332.965.850.830;0.83436036109924;1.125.423.049.926.750;560.311.508.178.711;-843.959.808.349.609
403;948306287;6.055.137.634.277.340;-7.258.466.339.111.320;-6.994.963.073.730.460;852.313.518.524.170;505.418.729.782.104;0.74537193775177;732.464.790.344.238;478.727.579.116.821;-788.748.216.629.028
404;948314620;6.056.824.493.408.200;-7.252.425.384.521.480;-6.995.298.004.150.390;861.160.945.892.334;519.166.612.625.122;0.59313255548477;261.810.779.571.533;378.719.258.308.411;-678.568.458.557.129
405;948322953;6.054.373.931.884.760;-7.247.473.144.531.250;-6.993.844.604.492.180;868.093.299.865.723;518.052.577.972.412;0.50381344556808;-219.984.006.881.714;313.256.978.988.647;-553.660.631.179.810
406;948331286;6.048.426.818.847.650;-7.244.110.870.361.320;-6.992.636.108.398.430;855.460.262.298.584;511.498.546.600.342;0.46062096953392;-669.939.088.821.411;215.840.911.865.234;-398.809.838.294.983
407;948339619;6.039.769.744.873.040;-7.242.884.063.720.700;-6.992.684.936.523.430;837.834.262.847.900;505.842.828.750.610;0.32958465814590;-1.136.814.689.636.230;0.46784400939941;-191.511.225.700.378
408;948347952;6.026.900.863.647.460;-7.244.061.279.296.870;-6.992.698.669.433.590;816.607.666.015.625;497.496.604.919.434;0.19635111093521;-1.639.691.734.313.960;-0.91595250368118;0.55134654045105
409;948356285;6.008.999.633.789.060;-7.247.456.359.863.280;-6.992.327.880.859.370;795.450.162.887.573;497.301.864.624.023;0.23806817829609;-2.198.341.178.894.040;-215.396.547.317.505;297.678.494.453.430
410;948364618;5.988.018.798.828.120;-7.253.112.792.968.750;-6.993.594.360.351.560;789.603.042.602.539;488.958.978.652.954;0.34233972430229;-2.757.557.487.487.790;-398.666.620.254.517;495.704.889.297.485
411;948372951;5.963.945.770.263.670;-7.260.648.345.947.260;-6.996.801.757.812.500;804.160.785.675.049;459.197.187.423.706;0.46395075321198;-3.348.466.491.699.210;-579.505.968.093.872;660.840.177.536.011
412;948381284;5.937.005.996.704.100;-7.270.397.949.218.750;-7.001.451.873.779.290;824.092.864.990.234;412.953.567.504.883;0.47956952452660;-3.858.706.665.039.060;-759.710.359.573.364;858.936.214.447.021
413;948389617;5.905.189.132.690.430;-7.281.846.618.652.340;-7.003.678.894.042.960;848.675.918.579.102;366.391.158.103.943;0.63790869712830;-4.165.917.968.750.000;-795.555.162.429.810;1.077.280.235.290.520
414;948397950;5.867.730.712.890.620;-7.294.661.712.646.480;-7.002.476.501.464.840;880.209.636.688.232;327.620.577.812.195;0.99634230136871;-4.450.168.228.149.410;-781.774.854.660.034;1.273.818.874.359.130
415;948406283;5.824.316.024.780.270;-7.308.011.627.197.260;-6.997.521.972.656.250;930.060.672.760.010;287.877.035.140.991;130.981.838.703.156;-4.733.700.942.993.160;-714.194.250.106.812;1.393.970.489.501.950
416;948414616;5.772.526.168.823.240;-7.320.050.811.767.570;-6.985.217.285.156.250;1.003.278.827.667.230;240.832.448.005.676;155.266.201.496.124;-4.895.348.739.624.020;-424.911.642.074.585;1.386.832.141.876.220
417;948422949;5.710.513.687.133.780;-7.328.631.591.796.870;-6.961.904.144.287.100;1.073.850.822.448.730;197.602.820.396.423;189.144.432.544.708;-4.855.210.494.995.110;100.828.087.329.865;1.239.163.017.272.940
418;948431282;5.642.651.748.657.220;-7.332.765.197.753.900;-6.931.864.929.199.210;1.129.411.029.815.670;152.848.696.708.679;217.091.464.996.338;-4.700.370.788.574.210;594.389.772.415.161;931.783.676.147.461
419;948439615;5.579.302.978.515.620;-7.332.462.310.791.010;-6.903.113.555.908.200;1.157.312.583.923.340;106.444.478.034.973;219.074.058.532.715;-4.389.374.160.766.600;817.679.405.212.402;459.141.063.690.186
420;948447948;5.532.894.134.521.480;-7.329.015.350.341.790;-6.887.496.948.242.180;1.154.900.550.842.280;0.57347220182419;208.507.871.627.808;-3.955.018.997.192.380;631.983.470.916.748;-114.832.615.852.356
421;948456281;5.510.444.259.643.550;-7.323.962.402.343.750;-6.892.582.702.636.710;1.126.053.142.547.600;0.18891100585461;188.263.177.871.704;-3.370.792.007.446.280;177.112.364.768.982;-660.616.111.755.371
422;948464614;5.507.192.611.694.330;-7.317.725.372.314.450;-6.913.097.381.591.790;1.071.564.579.010.010;0.20216490328312;176.207.005.977.631;-2.756.817.626.953.120;-158.832.716.941.833;-1.069.224.834.442.130
423;948472947;5.513.329.315.185.540;-7.310.833.740.234.370;-6.938.428.497.314.450;1.003.058.338.165.280;0.52084052562714;159.594.213.962.555;-2.264.815.902.709.960;-274.373.459.815.979;-1.244.713.020.324.700
424;948481280;5.520.037.078.857.420;-7.304.265.594.482.420;-6.961.033.630.371.090;958.493.900.299.072;102.628.445.625.305;144.660.997.390.747;-1.917.160.797.119.140;-230.598.640.441.895;-1.167.091.369.628.900
425;948489613;5.516.664.123.535.150;-7.297.965.240.478.510;-6.972.547.912.597.650;948.005.199.432.373;154.431.951.045.990;150.751.066.207.886;-1.818.630.409.240.720;0.75789982080460;-914.258.098.602.295
426;948497946;5.493.666.076.660.150;-7.291.411.590.576.170;-6.965.507.507.324.210;946.069.622.039.795;198.326.003.551.483;172.169.387.340.546;-2.035.739.707.946.770;637.315.750.122.070;-568.742.513.656.616
427;948506279;5.446.855.926.513.670;-7.284.669.494.628.900;-6.937.799.072.265.620;946.983.528.137.207;229.625.725.746.155;192.029.523.849.487;-2.531.888.198.852.530;1.242.093.944.549.560;-157.178.008.556.366
428;948514612;5.375.489.425.659.180;-7.277.671.813.964.840;-6.889.630.126.953.120;945.252.513.885.498;238.451.623.916.626;223.751.974.105.835;-3.153.037.643.432.610;1.854.510.879.516.600;248.220.133.781.433
429;948522945;5.284.198.760.986.320;-7.269.514.465.332.030;-6.826.287.078.857.420;917.717.647.552.490;228.970.909.118.652;241.326.117.515.564;-3.788.537.597.656.250;2.369.730.758.666.990;501.087.045.669.556
430;948531278;5.181.237.411.499.020;-7.259.207.916.259.760;-6.754.925.537.109.370;869.891.357.421.875;199.621.415.138.245;240.428.185.462.952;-4.286.881.256.103.510;2.755.872.535.705.560;512.795.591.354.370
431;948539611;5.075.893.402.099.600;-7.245.745.086.669.920;-6.682.982.635.498.040;819.168.281.555.176;158.401.107.788.086;247.418.284.416.199;-4.499.188.613.891.600;3.009.534.072.875.970;298.452.711.105.347
432;948547944;4.975.212.478.637.690;-7.228.861.999.511.710;-6.616.475.677.490.230;757.107.734.680.176;121.988.534.927.368;257.072.377.204.895;-4.571.142.578.125.000;3.132.019.424.438.470;-0.78749895095825
433;948556277;4.884.701.538.085.930;-7.209.264.373.779.290;-6.560.572.052.001.950;691.230.297.088.623;0.82795763015747;251.292.729.377.747;-4.567.095.184.326.170;3.065.053.558.349.600;-507.392.406.463.623
434;948564610;4.806.372.451.782.220;-7.187.821.197.509.760;-6.516.146.087.646.480;627.084.207.534.790;0.49058139324188;237.791.395.187.378;-4.422.576.141.357.420;2.916.551.589.965.820;-895.197.963.714.600
435;948572943;4.738.103.485.107.420;-7.165.536.499.023.430;-6.479.831.695.556.640;569.213.438.034.058;0.15570563077927;215.538.835.525.513;-4.146.030.426.025.390;2.783.220.863.342.280;-1.123.600.387.573.240
436;948581276;4.674.343.109.130.850;-7.143.417.358.398.430;-6.445.053.863.525.390;523.246.908.187.866;-0.10027104616165;178.569.233.417.511;-3.785.413.742.065.430;2.750.984.382.629.390;-1.105.257.701.873.770
437;948589609;4.609.156.417.846.680;-7.121.633.911.132.810;-6.405.498.504.638.670;481.261.062.622.070;-0.31011164188385;140.979.933.738.708;-3.418.110.275.268.550;2.879.027.557.373.040;-908.606.529.235.840
438;948597942;4.536.886.215.209.960;-7.100.061.035.156.250;-6.355.182.266.235.350;435.732.221.603.394;-0.34942805767059;124.742.448.329.926;-3.052.291.107.177.730;3.182.466.888.427.730;-551.417.827.606.201
439;948606275;4.453.974.533.081.050;-7.078.879.547.119.140;-6.292.071.533.203.120;382.466.578.483.582;-0.31285157799721;112.779.581.546.783;-2.885.519.409.179.680;3.525.852.203.369.140;-103.731.441.497.803
440;948614608;4.360.108.566.284.180;-7.057.132.720.947.260;-6.215.590.286.254.880;336.571.192.741.394;-0.18887116014957;0.79426288604736;-2.695.546.340.942.380;3.962.591.171.264.640;304.474.449.157.715
441;948622941;4.253.230.667.114.250;-7.033.537.292.480.460;-6.124.405.288.696.280;307.812.905.311.584;0.11197707056999;0.75251245498657;-2.606.094.360.351.560;4.544.301.223.754.880;679.152.774.810.791
442;948631274;4.135.899.734.497.070;-7.006.974.029.541.010;-6.022.159.957.885.740;291.282.105.445.862;0.42174401879311;0.70069301128387;-2.628.116.607.666.010;5.124.591.064.453.120;897.781.562.805.176
443;948639607;4.012.854.385.375.970;-6.977.297.973.632.810;-5.913.547.897.338.860;292.508.053.779.602;0.76034480333328;0.70188856124878;-2.616.780.853.271.480;5.594.121.551.513.670;1.004.053.401.947.020
444;948647940;3.888.905.715.942.380;-6.944.721.984.863.280;-5.804.138.946.533.200;290.423.464.775.085;114.627.230.167.389;0.73987603187561;-2.659.913.825.988.770;5.902.428.436.279.290;979.384.517.669.678
445;948656273;3.764.343.643.188.470;-6.908.705.139.160.150;-5.695.955.657.958.980;285.062.336.921.692;145.877.897.739.410;0.71967494487762;-2.898.768.234.252.930;6.215.524.673.461.910;869.578.742.980.957
446;948664606;3.644.803.237.915.030;-6.871.727.752.685.540;-5.595.983.505.249.020;308.127.665.519.714;152.615.690.231.323;0.47311085462570;-3.244.946.670.532.220;6.118.408.584.594.720;711.935.281.753.540
447;948672939;3.540.024.948.120.110;-6.836.264.038.085.930;-5.512.149.047.851.560;343.366.527.557.373;141.702.771.186.829;0.59835606813431;-3.303.050.994.873.040;5.581.423.950.195.310;421.701.574.325.562
448;948681272;3.453.154.373.168.940;-6.802.135.467.529.290;-5.447.576.141.357.420;404.825.019.836.426;144.306.385.517.120;0.94429922103882;-3.322.375.106.811.520;4.981.756.591.796.870;-0.50148987770081
449;948689605;3.380.839.157.104.490;-6.765.634.155.273.430;-5.397.153.854.370.110;486.700.582.504.272;146.399.092.674.255;0.88437318801880;-3.166.782.760.620.110;4.881.575.012.207.030;-634.070.777.893.066
450;948697938;3.325.576.400.756.830;-6.731.522.369.384.760;-5.364.099.502.563.470;630.461.025.238.037;151.326.036.453.247;115.394.854.545.593;-3.059.672.737.121.580;4.226.507.949.829.100;-1.057.013.607.025.140
451;948706271;3.284.119.415.283.200;-6.699.340.057.373.040;-5.346.165.847.778.320;793.744.897.842.407;139.608.871.936.798;166.840.100.288.391;-3.084.023.475.646.970;3.668.420.028.686.520;-1.468.094.730.377.190
452;948714604;3.261.048.507.690.430;-6.673.260.498.046.870;-5.345.914.459.228.510;1.006.979.084.014.890;144.732.058.048.248;184.709.620.475.769;-2.832.975.578.308.100;2.614.779.090.881.340;-1.744.755.744.934.080
453;948722937;3.256.972.503.662.100;-6.654.507.446.289.060;-5.362.191.009.521.480;1.182.877.254.486.080;150.926.125.049.591;211.513.710.021.973;-2.374.563.789.367.670;1.454.411.125.183.100;-1.927.126.312.255.850
454;948731270;3.256.952.667.236.320;-6.640.098.571.777.340;-5.378.046.417.236.320;1.254.806.900.024.410;184.157.752.990.723;249.162.173.271.179;-1.839.826.583.862.300;1.025.471.591.949.460;-1.635.516.929.626.460
455;948739603;3.248.528.671.264.640;-6.630.992.889.404.290;-5.380.588.912.963.860;1.263.811.492.919.920;206.089.901.924.133;302.622.771.263.123;-1.382.717.037.200.920;831.348.609.924.316;-753.349.447.250.366
456;948747936;3.225.740.814.208.980;-6.627.162.933.349.600;-5.363.503.265.380.850;1.288.659.858.703.610;219.243.192.672.729;356.007.575.988.770;-949.744.033.813.477;805.114.459.991.455;387.587.022.781.372
457;948756269;3.188.777.732.849.120;-6.628.163.909.912.100;-5.328.359.222.412.100;1.286.975.669.860.840;235.374.975.204.468;394.090.676.307.678;-666.929.531.097.412;774.928.092.956.543;1.439.302.539.825.430
458;948764602;3.144.314.575.195.310;-6.635.120.391.845.700;-5.284.912.490.844.720;1.268.768.024.444.580;231.875.801.086.426;429.067.468.643.188;-653.092.765.808.105;365.248.894.691.467;2.158.110.237.121.580
459;948772935;3.105.825.614.929.190;-6.649.704.742.431.640;-5.246.905.899.047.850;1.319.239.425.659.180;218.669.581.413.269;443.800.306.320.190;-531.051.254.272.461;-573.996.114.730.835;2.404.804.039.001.460
460;948781268;3.075.975.799.560.540;-6.666.672.515.869.140;-5.217.161.941.528.320;1.445.528.984.069.820;226.304.554.939.270;455.859.327.316.284;-398.884.296.417.236;-1.043.092.823.028.560;2.200.947.952.270.500
461;948789601;3.056.244.659.423.820;-6.678.365.325.927.730;-5.196.614.456.176.750;1.592.203.426.361.080;218.293.571.472.168;472.647.047.042.847;-195.107.495.784.760;-734.248.828.887.939;1.491.015.148.162.840
462;948797934;3.059.297.180.175.780;-6.688.108.825.683.590;-5.194.119.262.695.310;1.747.591.400.146.480;218.221.187.591.553;547.088.527.679.443;549.082.183.837.891;-970.921.897.888.184;633.465.719.223.022
463;948806267;3.085.959.434.509.270;-6.697.327.423.095.700;-5.210.494.995.117.180;1.894.900.131.225.580;245.016.932.487.488;605.481.529.235.840;1.299.556.541.442.870;-1.369.013.404.846.190;-159.065.723.419.189
464;948814600;3.128.652.191.162.100;-6.702.591.705.322.260;-5.237.163.543.701.170;2.003.473.472.595.210;285.083.365.440.369;667.698.669.433.594;2.084.997.367.858.880;-1.210.584.545.135.490;-808.197.402.954.102
465;948822933;3.192.957.496.643.060;-6.712.731.933.593.750;-5.281.685.638.427.730;2.041.844.367.980.950;369.239.449.501.038;757.223.606.109.619;2.703.772.926.330.560;-2.151.182.174.682.610;-1.197.527.217.864.990
466;948831266;3.280.692.672.729.490;-6.735.297.393.798.820;-5.347.778.701.782.220;2.113.466.262.817.380;460.820.102.691.650;651.576.423.645.020;3.122.822.952.270.500;-3.954.574.203.491.210;-1.204.259.777.069.090
467;948839599;3.381.923.294.067.380;-6.768.596.649.169.920;-5.428.117.370.605.460;2.210.217.666.625.970;538.128.137.588.501;621.167.755.126.953;3.147.501.182.556.150;-5.387.859.344.482.420;-949.396.228.790.283
468;948847932;3.497.150.802.612.300;-6.813.040.161.132.810;-5.529.490.280.151.360;2.268.468.666.076.660;600.187.730.789.185;643.386.411.666.870;2.463.489.532.470.700;-7.009.992.218.017.570;-825.206.375.122.070
469;948856265;3.633.611.679.077.140;-6.868.180.084.228.510;-5.659.538.269.042.960;2.312.634.658.813.470;664.482.402.801.514;566.542.673.110.962;1.772.561.073.303.220;-8.748.698.425.292.960;-873.114.681.243.896
470;948864598;3.789.348.602.294.920;-6.930.439.758.300.780;-5.814.720.535.278.320;2.392.486.381.530.760;745.959.949.493.408;560.452.795.028.687;1.211.787.033.081.050;-10.010.021.972.656.200;-878.726.005.554.199
471;948872931;3.951.485.824.584.960;-6.992.828.369.140.620;-5.980.525.970.458.980;2.467.386.817.932.120;792.194.843.292.236;539.317.178.726.196;713.457.822.799.683;-10.199.996.948.242.100;-790.210.294.723.511
472;948881264;4.112.072.372.436.520;-7.052.291.870.117.180;-6.146.844.482.421.870;2.511.443.138.122.550;785.898.447.036.743;451.290.893.554.688;396.842.145.919.800;-9.833.516.693.115.230;-595.304.250.717.163
473;948889597;4.282.210.922.241.210;-7.112.439.727.783.200;-6.324.897.384.643.550;2.568.555.641.174.310;725.551.414.489.746;392.537.975.311.279;143.318.057.060.242;-10.083.952.331.542.900;-454.909.038.543.701
474;948897930;4.478.099.441.528.320;-7.176.367.187.500.000;-6.528.910.827.636.710;2.658.506.011.962.890;668.345.546.722.412;335.776.662.826.538;205.141.448.974.609;-10.953.263.854.980.400;-376.767.635.345.459
475;948906263;4.693.855.667.114.250;-7.240.078.735.351.560;-6.751.268.768.310.540;2.736.954.879.760.740;601.689.672.470.093;266.093.802.452.087;409.517.335.891.724;-11.239.379.882.812.500;-294.601.583.480.835
476;948914596;4.917.129.898.071.280;-7.299.316.406.250.000;-6.976.268.768.310.540;2.737.107.086.181.640;569.637.727.737.427;233.651.733.398.438;921.847.724.914.551;-10.748.160.552.978.500;-145.207.309.722.900
477;948922929;5.150.930.023.193.350;-7.357.897.949.218.750;-7.208.195.495.605.460;2.654.874.229.431.150;516.340.398.788.452;206.493.234.634.399;1.308.401.393.890.380;-10.672.504.425.048.800;239.126.729.965.210
478;948931262;5.397.116.088.867.180;-7.416.670.989.990.230;-7.450.679.779.052.730;2.570.754.814.147.940;418.975.114.822.388;165.316.021.442.413;1.496.614.360.809.320;-10.726.614.379.882.800;654.960.298.538.208
479;948939595;5.638.238.906.860.350;-7.473.572.540.283.200;-7.687.737.274.169.920;2.470.139.312.744.140;303.939.604.759.216;120.171.308.517.456;1.436.544.322.967.520;-10.183.243.560.791.000;1.186.521.339.416.500
480;948947928;5.863.162.994.384.760;-7.528.023.529.052.730;-7.909.545.898.437.500;2.195.867.729.187.010;240.065.526.962.280;158.499.705.791.473;1.187.544.536.590.570;-9.341.730.499.267.570;1.747.394.371.032.710
481;948956261;6.107.008.743.286.130;-7.585.413.360.595.700;-8.151.108.551.025.390;1.830.838.966.369.620;205.679.082.870.483;165.146.362.781.525;1.096.905.899.047.850;-9.730.596.923.828.120;2.261.208.915.710.440
482;948964594;6.396.949.005.126.950;-7.647.525.787.353.510;-8.438.050.079.345.700;1.417.907.524.108.880;118.977.534.770.966;259.327.363.967.896;1.266.197.299.957.270;-10.768.041.992.187.500;2.747.351.837.158.200
483;948972927;6.790.632.629.394.530;-7.714.192.199.707.030;-8.826.366.424.560.540;949.004.745.483.398;0.23911038041115;438.572.120.666.504;1.780.832.290.649.410;-12.994.258.117.675.700;2.901.337.051.391.600
484;948981260;7.339.453.887.939.450;-7.780.384.063.720.700;-9.366.320.800.781.250;550.378.799.438.477;-0.07508409023285;526.034.259.796.143;2.512.843.704.223.630;-15.911.810.302.734.300;2.766.884.040.832.520
485;948989593;8.014.242.553.710.930;-7.833.390.808.105.460;-10.026.144.409.179.600;255.982.470.512.390;0.24645581841469;556.238.317.489.624;3.411.663.818.359.370;-17.408.148.193.359.300;2.372.910.690.307.610
486;948997926;8.725.398.254.394.530;-7.864.440.155.029.290;-10.719.474.792.480.400;0.53316831588745;0.25839591026306;495.326.805.114.746;3.717.416.381.835.930;-16.928.697.204.589.800;1.812.458.038.330.070
487;949006259;9.371.030.426.025.390;-7.874.481.201.171.870;-11.340.028.381.347.600;-132.279.610.633.850;-0.49257385730743;517.096.376.419.067;4.361.351.013.183.590;-14.609.039.306.640.600;1.264.054.965.972.900
488;949014592;9.867.434.692.382.810;-7.871.939.849.853.510;-11.811.737.060.546.800;-332.567.143.440.247;-132.462.763.786.316;710.611.104.965.210;3.962.722.015.380.850;-11.053.227.233.886.700;827.408.885.955.811
489;949022925;10.177.809.906.005.800;-7.866.596.984.863.280;-12.101.776.885.986.300;-399.303.746.223.450;-268.465.042.114.258;782.142.066.955.566;3.024.265.098.571.770;-6.855.175.781.250.000;518.775.415.420.532
490;949031258;10.315.695.953.369.100;-7.865.314.483.642.570;-12.229.409.027.099.600;-376.351.976.394.653;-353.791.308.403.015;689.564.275.741.577;1.437.449.169.158.930;-2.998.765.182.495.110;437.806.606.292.725
491;949039591;10.380.677.032.470.700;-7.867.484.283.447.260;-12.283.837.127.685.500;-0.98536580801010;-356.554.818.153.381;536.040.544.509.888;1.301.833.534.240.720;-1.212.384.796.142.570;489.775.037.765.503
492;949047924;10.376.586.914.062.500;-7.874.918.365.478.510;-12.268.560.791.015.600;122.598.242.759.705;-151.113.104.820.251;559.840.440.750.122;1.213.763.999.938.960;537.361.145.019.531;717.862.129.211.426
493;949056257;10.305.207.061.767.500;-7.887.104.034.423.820;-12.193.057.250.976.500;112.748.277.187.347;-0.51451754570007;374.042.654.037.476;230.254.125.595.093;2.025.338.745.117.180;950.813.579.559.326
494;949064590;10.199.876.403.808.500;-7.900.950.622.558.590;-12.087.416.076.660.100;0.41542813181877;0.22645677626133;230.931.782.722.473;-290.881.872.177.124;2.710.879.516.601.560;1.032.315.921.783.440
495;949072923;10.075.342.559.814.400;-7.914.068.603.515.620;-11.963.780.975.341.700;-0.43501996994019;0.83615809679031;104.995.787.143.707;-469.192.981.719.971;3.043.240.356.445.310;925.102.424.621.582
496;949081256;9.926.197.814.941.400;-7.924.257.659.912.100;-11.812.913.513.183.500;-124.914.836.883.545;165.222.108.364.105;-0.84594774246216;-207.184.815.406.799;3.532.086.563.110.350;550.673.389.434.814
497;949089589;9.758.037.567.138.670;-7.928.031.158.447.260;-11.641.850.280.761.700;-175.499.439.239.502;208.656.716.346.741;-254.343.390.464.783;-104.059.243.202.209;3.826.433.563.232.420;-174.859.654.903.412
498;949097922;9.613.469.696.044.920;-7.924.021.911.621.090;-11.496.384.429.931.600;-191.344.463.825.226;191.413.605.213.165;-313.418.340.682.983;-289.629.364.013.672;3.148.901.748.657.220;-929.314.804.077.148
499;949106255;9.555.251.312.255.850;-7.911.634.826.660.150;-11.443.383.789.062.500;-128.711.438.179.016;106.267.213.821.411;-248.371.696.472.168;-831.859.683.990.479;1.012.618.160.247.800;-1.662.255.668.640.130
500;949114588;9.567.926.025.390.620;-7.893.523.406.982.420;-11.461.597.442.626.900;0.25638025999069;0.47162529826164;-175.190.138.816.833;-717.038.917.541.504;-651.087.331.771.851;-2.184.033.393.859.860
501;949122921;9.613.112.640.380.850;-7.873.007.202.148.430;-11.511.608.123.779.200;237.593.388.557.434;0.17956905066967;-107.390.952.110.291;-557.767.057.418.823;-1.434.020.423.889.160;-2.391.079.139.709.470
502;949131254;9.676.518.249.511.710;-7.854.803.466.796.870;-11.576.814.270.019.500;359.847.378.730.774;0.23058132827282;0.02622934430838;-154.557.669.162.750;-1.801.920.318.603.510;-2.060.065.841.674.800
503;949139587;9.669.323.730.468.750;-7.841.768.646.240.230;-11.571.855.163.574.200;385.196.232.795.715;-0.72286790609360;-219.066.548.347.473;-372.844.672.203.064;-0.89771491289139;-1.630.150.222.778.320
504;949147920;9.607.511.138.916.010;-7.836.186.981.201.170;-11.499.066.162.109.300;230.487.227.439.880;-0.76564139127731;-201.210.331.916.809;1.045.998.668.670.650;1.649.019.432.067.870;-922.741.699.218.750
505;949156253;9.601.349.639.892.570;-7.836.080.932.617.180;-11.479.273.986.816.400;0.58212912082672;-0.57084465026855;0.30498784780502;1.494.593.620.300.290;450.636.482.238.770;-126.151.418.685.913
506;949164586;9.589.588.165.283.200;-7.838.845.062.255.850;-11.458.695.983.886.700;116.694.998.741.150;-0.55496007204056;-0.54927134513855;914.940.643.310.547;505.043.601.989.746;215.638.613.700.867
507;949172919;9.506.311.035.156.250;-7.843.868.255.615.230;-11.366.135.406.494.100;0.45103365182877;-0.88175708055496;-0.29456722736359;795.101.976.394.653;2.254.266.166.687.010;324.074.006.080.627
508;949181252;9.439.402.008.056.640;-7.847.812.652.587.890;-11.291.597.747.802.700;-0.90617597103119;-0.60797947645187;150.889.372.825.623;642.020.988.464.355;1.798.924.064.636.230;262.195.062.637.329
509;949189585;9.433.219.146.728.510;-7.849.804.687.500.000;-11.276.922.607.421.800;0.62751823663712;0.42755851149559;113.511.943.817.139;891.198.539.733.887;344.391.059.875.488;149.182.426.929.474
510;949197918;9.394.148.254.394.530;-7.851.832.580.566.400;-11.230.661.010.742.100;229.493.188.858.032;112.278.449.535.370;0.65570980310440;659.397.602.081.299;1.096.578.884.124.750;100.095.331.668.854
511;949206251;9.278.391.265.869.140;-7.855.402.374.267.570;-11.110.548.400.878.900;230.866.026.878.357;0.83175593614578;0.64877998828888;142.438.292.503.357;2.861.083.602.905.270;196.666.228.771.210
512;949214584;9.103.394.317.626.950;-7.860.715.484.619.140;-10.930.793.762.207.000;106.838.595.867.157;-0.14336827397346;0.82945454120636;0.51236236095428;4.265.786.361.694.330;430.852.603.912.354
513;949222917;8.945.045.471.191.400;-7.865.823.364.257.810;-10.761.284.637.451.100;-0.81754314899445;-0.58609890937805;110.725.331.306.458;847.445.678.710.938;3.988.475.418.090.820;533.458.185.195.923
514;949231250;8.819.902.801.513.670;-7.869.571.685.791.010;-10.622.470.092.773.400;-120.316.386.222.839;-0.38930228352547;0.36261361837387;1.223.798.084.259.030;3.237.240.219.116.210;454.238.176.345.825
515;949239583;8.671.738.433.837.890;-7.870.018.005.371.090;-10.460.453.033.447.200;-126.025.092.601.776;0.07712954282761;-0.08812478929758;1.192.689.990.997.310;3.780.681.610.107.420;159.738.266.468.048
516;949247916;8.516.487.884.521.480;-7.867.568.206.787.100;-10.295.155.334.472.600;-145.003.795.623.779;0.43040418624878;0.12257402390242;727.037.954.330.444;3.878.433.227.539.060;-0.80168813467026
517;949256249;8.374.728.393.554.680;-7.863.663.482.666.010;-10.148.713.684.082.000;-0.81002205610275;0.71502995491028;0.27249780297279;125.927.412.509.918;3.462.170.028.686.520;-194.930.958.747.864
518;949264582;8.237.046.051.025.390;-7.859.033.966.064.450;-10.011.363.983.154.200;0.29818826913834;0.79065018892288;0.19904413819313;-456.593.370.437.622;3.273.530.578.613.280;-221.034.383.773.804
519;949272915;8.082.187.652.587.890;-7.854.061.126.708.980;-9.860.486.602.783.200;110.867.941.379.547;0.82981073856354;0.36421024799347;-929.722.404.479.980;3.614.316.558.837.890;-128.385.114.669.800
520;949281248;7.908.019.256.591.790;-7.848.494.720.458.980;-9.692.668.914.794.920;129.333.436.489.105;0.63896006345749;0.64463382959366;-1.258.343.505.859.370;4.042.293.930.053.710;-0.19801115989685
521;949289581;7.730.819.702.148.430;-7.842.096.710.205.070;-9.520.458.984.375.000;106.356.990.337.372;0.24549001455307;0.87059646844864;-1.109.557.914.733.880;4.182.683.181.762.690;0.32473778724670
522;949297914;7.548.920.440.673.820;-7.834.418.487.548.820;-9.341.744.232.177.730;0.65850138664246;-0.23660893738270;0.73411548137665;-914.582.157.135.010;4.390.976.333.618.160;0.57667988538742
523;949306247;7.348.167.419.433.590;-7.824.231.719.970.700;-9.143.224.334.716.790;0.16416968405247;-0.57326418161392;0.66653567552567;-856.686.687.469.482;4.960.909.652.709.960;0.52552843093872
524;949314580;7.125.531.005.859.370;-7.810.498.046.875.000;-8.924.907.684.326.170;-0.55810332298279;-0.79802799224854;0.64355677366257;-1.166.886.520.385.740;5.592.847.442.626.950;-0.06753212213516
525;949322913;6.896.946.716.308.590;-7.793.770.599.365.230;-8.703.370.666.503.900;-121.316.504.478.455;-0.88038456439972;0.70118480920792;-1.517.580.604.553.220;5.847.803.115.844.720;-0.72295141220093
526;949331246;6.680.859.375.000.000;-7.776.100.921.630.850;-8.497.895.050.048.820;-173.221.743.106.842;-0.60044121742249;0.79913610219955;-1.918.487.739.562.980;5.582.736.968.994.140;-0.71854555606842
527;949339579;6.475.554.656.982.420;-7.759.005.737.304.680;-8.306.070.709.228.510;-201.592.421.531.677;-0.28400158882141;0.62980872392654;-2.240.454.101.562.500;5.298.947.143.554.680;0.82516491413116
528;949347912;6.268.973.159.790.030;-7.742.536.926.269.530;-8.117.353.057.861.320;-172.248.923.778.534;0.24369098246098;0.35275170207024;-2.772.463.798.522.940;5.243.460.083.007.810;335.122.323.036.194
529;949356245;6.018.136.978.149.410;-7.721.884.918.212.890;-7.895.099.639.892.570;127.490.520.477.295;-0.99074363708496;0.84512323141098;-4.173.175.811.767.570;6.302.150.726.318.350;560.829.067.230.225
530;949364578;5.741.290.283.203.120;-7.691.519.927.978.510;-7.615.224.456.787.100;630.371.713.638.306;-0.30845677852631;598.190.450.668.335;-581.291.675.567.627;8.292.814.636.230.460;716.398.668.289.185
531;949372911;5.331.445.693.969.720;-7.627.693.176.269.530;-7.219.173.431.396.480;1.086.759.281.158.440;392.491.841.316.223;1.234.144.115.447.990;-3.041.654.968.261.710;13.391.200.256.347.600;-0.97844159603119
532;949381244;4.778.519.821.166.990;-7.499.011.993.408.200;-6.703.015.136.718.750;1.633.748.054.504.390;110.565.805.435.181;964.812.850.952.148;-6.436.238.861.083.980;21.642.887.878.417.900;-2.208.683.776.855.460
533;949389577;4.230.268.096.923.820;-7.300.540.924.072.260;-6.163.880.920.410.150;2.216.246.223.449.700;177.770.042.419.434;1.400.630.664.825.430;-3.680.591.964.721.680;29.403.887.939.453.100;-4.296.683.502.197.260
534;949397910;3.815.637.969.970.700;-7.057.183.074.951.170;-5.764.871.597.290.030;2.769.297.790.527.340;279.238.247.871.399;1.937.788.391.113.280;-4.352.740.097.045.890;31.921.786.499.023.400;-7.485.997.772.216.790
535;949406243;3.716.408.920.288.080;-6.953.153.228.759.760;-5.696.762.084.960.930;4.015.787.887.573.240;335.595.679.283.142;-0.47033625841141;-4.316.864.013.671.870;11.561.721.038.818.300;-5.481.554.412.841.790
536;949414576;3.887.329.101.562.500;-7.007.410.430.908.200;-5.845.422.744.750.970;5.508.771.896.362.300;970.770.263.671.875;-0.56237268447876;3.675.824.356.079.100;-8.947.184.753.417.960;-905.638.504.028.320
537;949422909;3.535.760.116.577.140;-6.815.070.343.017.570;-5.488.769.912.719.720;1.712.679.481.506.340;569.813.013.076.782;2.052.272.033.691.400;-2.287.689.208.984.370;27.579.928.588.867.100;-1.814.859.580.993.650
538;949431242;3.483.839.416.503.900;-6.814.444.732.666.010;-5.456.726.455.688.470;901.788.234.710.693;271.221.256.256.104;248.419.570.922.852;-2.754.063.987.731.930;860.372.447.967.529;1.065.132.904.052.730
539;949439575;3.515.508.270.263.670;-6.896.888.732.910.150;-5.488.731.765.747.070;2.250.555.419.921.870;781.800.985.336.304;196.108.424.663.544;133.151.662.349.701;-8.934.103.393.554.680;4.461.422.348.022.460
540;949447908;3.410.136.413.574.210;-6.917.892.456.054.680;-5.376.510.238.647.460;3.031.086.730.957.030;1.090.994.453.430.170;514.137.554.168.701;-159.058.403.968.811;635.078.382.492.065;5.327.997.207.641.600
541;949456241;3.250.644.302.368.160;-6.889.935.302.734.370;-5.214.536.666.870.110;2.557.328.033.447.260;1.133.032.798.767.090;323.578.429.222.107;-1.080.715.084.075.920;6.597.100.830.078.120;3.907.628.250.122.070
542;949464574;3.135.121.726.989.740;-6.859.228.515.625.000;-5.109.549.331.665.030;2.159.262.466.430.660;802.791.690.826.416;238.368.701.934.814;-2.213.652.610.778.800;5.518.505.859.375.000;1.865.280.914.306.640
543;949472907;3.097.777.366.638.180;-6.840.477.752.685.540;-5.095.363.616.943.350;2.200.996.398.925.780;491.814.517.974.854;276.957.011.222.839;-2.989.987.754.821.770;2.223.879.432.678.220;-693.205.213.546.753
544;949481240;3.104.026.603.698.730;-6.828.297.424.316.400;-5.132.426.834.106.440;2.411.178.779.602.050;326.708.745.956.421;242.110.514.640.808;-3.476.601.028.442.380;383.332.967.758.179;-2.223.120.307.922.360
545;949489573;3.131.634.330.749.510;-6.821.117.401.123.040;-5.193.136.596.679.680;2.450.998.306.274.410;284.708.547.592.163;327.792.477.607.727;-3.545.855.712.890.620;-685.103.940.963.745;-2.818.853.187.561.030
546;949497906;3.154.403.114.318.840;-6.803.656.768.798.820;-5.247.665.786.743.160;2.188.998.222.351.070;288.056.683.540.344;309.621.548.652.649;-3.432.118.225.097.650;491.499.710.083.008;-3.235.315.322.875.970
547;949506239;3.159.130.859.375.000;-6.777.348.327.636.710;-5.276.104.354.858.390;1.853.100.013.732.910;299.204.969.406.128;332.209.753.990.173;-2.687.110.900.878.900;1.993.507.957.458.490;-2.809.203.720.092.770
548;949514572;3.158.086.204.528.800;-6.763.016.510.009.760;-5.290.194.320.678.710;1.666.592.216.491.690;280.162.239.074.707;306.115.555.763.245;-1.782.174.110.412.590;1.104.939.842.224.120;-1.510.281.562.805.170
549;949522905;3.160.413.551.330.560;-6.769.895.935.058.590;-5.299.696.731.567.380;1.629.723.548.889.160;206.632.399.559.021;236.278.176.307.678;-867.773.151.397.705;-954.523.563.385.010;0.00753058539703
550;949531238;3.136.234.664.916.990;-6.773.098.754.882.810;-5.277.203.750.610.350;1.494.773.864.746.090;113.973.891.735.077;340.291.309.356.689;-495.846.796.035.767;182.019.913.196.564;1.011.939.144.134.520
551;949539571;3.099.404.907.226.560;-6.775.868.988.037.100;-5.236.927.795.410.150;1.270.589.637.756.340;0.53280925750732;421.697.568.893.433;-0.38740262389183;639.001.083.374.023;1.675.499.343.872.070
552;949547904;3.063.198.089.599.600;-6.780.004.119.873.040;-5.191.918.182.373.040;1.091.072.463.989.250;0.40956667065620;397.028.422.355.652;562.806.415.557.861;595.823.240.280.151;1.946.416.282.653.800
553;949556237;3.034.410.667.419.430;-6.784.600.830.078.120;-5.151.425.552.368.160;980.956.935.882.568;0.65411388874054;361.063.051.223.755;952.908.706.665.039;430.844.354.629.517;1.798.060.989.379.880
554;949564570;3.024.421.882.629.390;-6.790.018.463.134.760;-5.127.831.649.780.270;887.805.175.781.250;0.88457149267197;333.374.834.060.669;1.331.661.319.732.660;-0.47679629921913;1.186.026.477.813.720
555;949572903;3.041.244.125.366.210;-6.798.260.498.046.870;-5.129.744.338.989.250;793.363.761.901.855;112.942.838.668.823;296.239.805.221.558;1.713.810.539.245.600;-921.450.614.929.199;362.413.334.846.497
556;949581236;3.082.765.960.693.350;-6.807.353.973.388.670;-5.153.909.301.757.810;713.022.947.311.401;118.222.928.047.180;243.115.520.477.295;2.200.494.956.970.210;-1.511.336.803.436.270;-449.710.702.896.118
557;949589569;3.139.624.595.642.090;-6.815.071.868.896.480;-5.191.180.038.452.140;619.415.330.886.841;117.703.795.433.044;222.494.459.152.222;2.580.764.389.038.080;-1.678.483.200.073.240;-1.011.843.776.702.880
558;949597902;3.204.466.247.558.590;-6.822.254.180.908.200;-5.233.976.745.605.460;534.706.592.559.814;108.505.332.469.940;182.070.469.856.262;2.922.415.733.337.400;-1.760.730.934.143.060;-1.232.933.616.638.180
559;949606235;3.270.346.832.275.390;-6.830.839.538.574.210;-5.276.084.899.902.340;473.716.306.686.401;0.84475684165955;140.973.830.223.083;3.119.707.679.748.530;-1.896.414.947.509.760;-1.091.578.865.051.270
560;949614568;3.325.057.983.398.430;-6.838.301.086.425.780;-5.305.706.024.169.920;418.174.505.233.765;0.61809790134430;134.966.123.104.095;3.169.952.011.108.390;-1.489.855.003.356.930;-675.065.135.955.811
561;949622901;3.368.699.645.996.090;-6.847.131.347.656.250;-5.324.048.233.032.220;398.410.058.021.545;0.43336516618729;0.97143775224686;3.098.208.618.164.060;-1.354.872.703.552.240;-152.964.520.454.407
562;949631234;3.400.398.635.864.250;-6.857.003.021.240.230;-5.329.500.198.364.250;390.850.567.817.688;0.49356734752655;0.81400960683823;3.102.724.456.787.100;-1.141.067.886.352.530;397.297.668.457.031
563;949639567;3.415.345.382.690.430;-6.864.133.453.369.140;-5.318.955.230.712.890;390.568.256.378.174;0.81312572956085;104.285.490.512.848;2.879.480.743.408.200;-474.100.732.803.345;798.983.001.708.984
564;949647900;3.417.904.663.085.930;-6.869.598.388.671.870;-5.297.510.147.094.720;443.803.739.547.729;119.963.061.809.540;134.150.826.931.000;2.611.818.695.068.350;-0.41831913590431;1.080.898.380.279.540
565;949656233;3.407.608.795.166.010;-6.871.267.700.195.310;-5.265.203.857.421.870;495.625.257.492.065;150.364.887.714.386;175.685.238.838.196;2.284.224.891.662.590;600.011.253.356.934;1.215.437.221.527.100
566;949664566;3.390.419.769.287.100;-6.869.679.260.253.900;-5.227.291.488.647.460;544.364.976.882.935;173.308.408.260.345;237.961.506.843.567;2.084.044.456.481.930;1.057.548.332.214.350;1.200.703.716.278.070
567;949672899;3.370.067.977.905.270;-6.865.213.775.634.760;-5.187.144.851.684.570;615.475.702.285.767;205.937.147.140.503;299.466.109.275.818;1.953.173.637.390.130;1.395.858.669.281.000;1.095.150.089.263.910
568;949681232;3.347.441.101.074.210;-6.857.008.361.816.400;-5.144.980.621.337.890;682.758.092.880.249;238.047.504.425.049;340.493.988.990.784;1.904.001.808.166.500;1.816.536.903.381.340;930.483.722.686.768
569;949689565;3.326.202.392.578.120;-6.847.823.333.740.230;-5.104.913.330.078.120;739.005.708.694.458;267.493.295.669.556;358.274.984.359.741;1.833.158.111.572.260;1.864.366.340.637.200;801.387.882.232.666
570;949697898;3.309.345.626.831.050;-6.839.691.162.109.370;-5.070.564.651.489.250;797.816.181.182.861;288.044.333.457.947;368.282.294.273.376;1.718.144.989.013.670;1.621.620.178.222.650;671.241.950.988.770
571;949706231;3.299.784.851.074.210;-6.834.022.521.972.650;-5.045.458.602.905.270;863.201.045.989.990;292.194.271.087.646;371.752.023.696.899;1.560.855.197.906.490;1.151.764.965.057.370;497.162.246.704.102
572;949714564;3.299.862.670.898.430;-6.830.838.012.695.310;-5.032.141.113.281.250;939.495.944.976.807;282.291.126.251.221;377.070.260.047.913;1.402.220.821.380.610;618.373.823.165.894;222.966.837.882.996
573;949722897;3.309.939.575.195.310;-6.829.254.913.330.070;-5.030.434.417.724.600;977.977.752.685.547;255.569.577.217.102;364.339.423.179.626;1.307.486.438.751.220;176.015.913.486.481;-102.355.778.217.316
574;949731230;3.327.939.224.243.160;-6.830.942.535.400.390;-5.038.936.614.990.230;954.996.585.845.947;227.824.068.069.458;350.302.314.758.301;1.119.485.473.632.810;-397.987.580.299.377;-272.500.872.612.000
575;949739563;3.351.496.124.267.570;-6.836.412.048.339.840;-5.055.594.253.540.030;911.081.123.352.051;211.710.190.773.010;329.604.673.385.620;876.798.439.025.879;-978.664.970.397.949;-317.412.924.766.541
576;949747896;3.377.713.775.634.760;-6.845.146.179.199.210;-5.077.420.043.945.310;856.856.155.395.508;207.308.840.751.648;307.338.237.762.451;618.463.516.235.352;-1.430.326.271.057.120;-285.792.183.876.038
577;949756229;3.403.351.593.017.570;-6.855.696.868.896.480;-5.101.551.055.908.200;818.298.149.108.887;204.599.308.967.590;289.802.169.799.805;289.876.317.977.905;-1.666.883.850.097.650;-237.283.921.241.760
578;949764562;3.423.628.616.333.000;-6.865.582.275.390.620;-5.123.041.534.423.820;792.581.796.646.118;202.949.905.395.508;283.112.645.149.231;-0.60952931642532;-1.530.459.785.461.420;-184.290.611.743.927
579;949772895;3.437.567.901.611.320;-6.873.094.177.246.090;-5.140.053.558.349.600;761.631.822.586.060;206.054.615.974.426;281.946.253.776.550;-321.303.725.242.615;-1.187.257.003.784.180;-167.146.992.683.411
580;949781228;3.447.428.894.042.960;-6.878.160.095.214.840;-5.154.597.473.144.530;746.437.835.693.359;210.062.503.814.697;273.979.353.904.724;-535.943.365.097.046;-883.254.528.045.654;-241.489.720.344.543
581;949789561;3.455.407.714.843.750;-6.880.155.181.884.760;-5.168.655.395.507.810;759.103.345.870.972;210.589.575.767.517;269.233.942.031.860;-707.371.664.047.241;-567.517.948.150.635;-429.639.053.344.727
582;949797894;3.460.139.083.862.300;-6.877.738.189.697.260;-5.180.603.790.283.200;803.730.392.456.055;201.524.472.236.633;264.237.380.027.771;-861.605.358.123.779;-0.79597520828247;-655.177.688.598.633
583;949806227;3.459.269.332.885.740;-6.869.469.451.904.290;-5.187.337.493.896.480;849.350.547.790.527;194.509.625.434.875;273.557.758.331.299;-949.643.993.377.686;626.014.518.737.793;-867.265.987.396.240
584;949814560;3.452.417.755.126.950;-6.855.990.600.585.930;-5.188.395.309.448.240;863.717.269.897.461;187.912.297.248.840;284.828.948.974.609;-1.032.764.911.651.610;1.282.128.429.412.840;-1.018.905.067.443.840
585;949822893;3.443.146.896.362.300;-6.840.033.721.923.820;-5.186.238.479.614.250;863.228.130.340.576;189.985.132.217.407;273.454.833.030.701;-963.941.955.566.406;1.607.488.250.732.420;-1.068.007.564.544.670
586;949831226;3.431.768.798.828.120;-6.823.442.840.576.170;-5.181.673.049.926.750;865.526.390.075.684;199.501.287.937.164;273.964.166.641.235;-948.927.116.394.043;1.734.097.099.304.190;-1.021.773.910.522.460
587;949839559;3.418.383.026.123.040;-6.807.619.476.318.350;-5.175.596.237.182.610;869.513.988.494.873;206.952.238.082.886;284.479.713.439.941;-1.022.032.737.731.930;1.697.840.118.408.200;-906.937.599.182.129
588;949847892;3.404.180.908.203.120;-6.794.284.057.617.180;-5.169.564.819.335.930;874.225.807.189.941;208.896.398.544.312;290.975.046.157.837;-1.125.593.566.894.530;1.453.526.210.784.910;-737.896.251.678.467
589;949856225;3.390.451.049.804.680;-6.784.143.829.345.700;-5.164.795.303.344.720;891.535.282.135.010;205.795.454.978.943;286.670.351.028.442;-1.209.838.771.820.060;1.105.116.271.972.650;-563.880.872.726.440
590;949864558;3.375.890.731.811.520;-6.776.323.699.951.170;-5.159.735.488.891.600;914.466.857.910.156;201.735.138.893.127;296.946.120.262.146;-1.277.862.453.460.690;884.879.779.815.674;-399.050.641.059.875
591;949872891;3.361.494.445.800.780;-6.770.645.904.541.010;-5.155.289.459.228.510;945.332.336.425.781;199.834.358.692.169;326.633.024.215.698;-1.326.345.062.255.850;654.671.812.057.495;-272.334.432.601.929
592;949881224;3.346.334.457.397.460;-6.765.695.953.369.140;-5.150.253.295.898.430;969.563.961.029.053;201.424.622.535.706;323.597.836.494.446;-1.353.132.534.027.100;602.147.245.407.104;-209.185.123.443.604
593;949889557;3.329.792.785.644.530;-6.759.895.324.707.030;-5.144.119.644.165.030;974.841.785.430.908;202.639.627.456.665;309.806.919.097.900;-1.396.674.060.821.530;710.941.171.646.118;-211.521.100.997.925
594;949897890;3.313.404.083.251.950;-6.753.709.411.621.090;-5.138.701.629.638.670;969.088.268.280.029;201.600.217.819.214;322.702.527.046.204;-1.458.604.335.784.910;734.168.338.775.635;-264.875.602.722.168
595;949906223;3.298.242.568.969.720;-6.747.229.003.906.250;-5.135.024.261.474.600;953.878.307.342.529;201.957.678.794.861;319.601.202.011.108;-1.504.097.652.435.300;719.229.936.599.731;-345.076.322.555.542
